date	time	subject	trialcode	trialnum	latency	response	
090607	10:07	802	JAPR17	1	7118	5	
090607	10:07	802	PR17 emerald	2	12193	tree	
090607	10:07	802	JAPR27	3	8681	6	
090607	10:07	802	PR27 wheat	4	22915	friend	
090607	10:07	802	JAPR07	5	3914	7	
090607	10:07	802	PR07 bog	6	12793	giraffe	
090607	10:07	802	JAPR23	7	4458	4	
090607	10:07	802	PR23 companion	8	10657	meatloaf	
090607	10:07	802	JAPR06	9	4424	4	
090607	10:07	802	PR06 beast	10	5985	crazy	
090607	10:07	802	JAPR09	11	4411	7	
090607	10:07	802	PR09 album	12	4017	fire	
090607	10:07	802	JAPR21	13	10273	2	
090607	10:07	802	PR21 innocence	14	7915	crazy	
090607	10:07	802	JAPR01	15	3871	5	
090607	10:07	802	PR01 cash	16	18782	yesterday	
090607	10:07	802	JAPR11	17	5247	3	
090607	10:07	802	PR11 ounce	18	2902	ounce	
090607	10:07	802	JAPR25	19	3024	5	
090607	10:07	802	PR25 saliva	20	6551	prediction	
090607	10:07	802	JAPR30	21	3856	5	
090607	10:07	802	PR30 maiden	22	6048	family	
090607	10:07	802	JAPR03	23	3659	4	
090607	10:07	802	PR03 acre	24	4945	squirrel	
090607	10:07	802	JAPR13	25	4166	2	
090607	10:07	802	PR13 ambition	26	7040	adult	
090607	10:07	802	JAPR04	27	4810	3	
090607	10:07	802	PR04 diaper	28	2853	dice	
090607	10:07	802	JAUR53	1	4933	6	
090607	10:07	802	UR53 hell	2	2723	hello	
090607	10:07	802	JAUR13	3	5194	2	
090607	10:07	802	UR13 almanac	4	2528	food	
090607	10:07	802	JAHL07	5	4242	3	
090607	10:07	802	HL07 king	6	2493	ski	
090607	10:07	802	JALH05	7	3828	6	
090607	10:07	802	LH05 chain	8	2181	chair	
090607	10:07	802	JALH02	9	2868	6	
090607	10:07	802	LH02 harm	10	3235	control	
090607	10:07	802	JAUR64	11	3881	1	
090607	10:07	802	UR64 fist	12	2175	first	
090607	10:07	802	JAUR32	13	9401	3	
090607	10:07	802	UR32 navigator	14	3085	navigator	
090607	10:07	802	JALH50	15	3978	4	
090607	10:07	802	LH50 measure	16	1967	mean	
090607	10:07	802	JALH27	17	5050	4	
090607	10:07	802	LH27 condition	18	3136	control	
090607	10:07	802	JAHL17	19	5613	3	
090607	10:07	802	HL17 soap	20	3050	free	
090607	10:07	802	JAUR74	21	2441	3	
090607	10:07	802	UR74 suitcase	22	3759	food	
090607	10:07	802	JAHL36	23	3697	1	
090607	10:07	802	HL36 football	24	2518	free	
090607	10:07	802	JALH20	25	2730	6	
090607	10:07	802	LH20 violation	26	3012	violence	
090607	10:07	802	JALH54	27	2671	4	
090607	10:07	802	LH54 limit	28	4323	domain	
090607	10:07	802	JALH51	29	3391	5	
090607	10:07	802	LH51 exit	30	1846	wire	
090607	10:07	802	JAUR35	31	3764	4	
090607	10:07	802	UR35 cause	32	2359	dark	
090607	10:07	802	JALH19	33	3142	3	
090607	10:07	802	LH19 snob	34	2307	bugar	
090607	10:07	802	JAHL51	35	3182	4	
090607	10:07	802	HL51 color	36	2293	color	
090607	10:07	802	JAHL47	37	3728	8	
090607	10:07	802	HL47 horse	38	2277	hoarse	
090607	10:07	802	JAUR45	39	4148	9	
090607	10:07	802	UR45 bridge	40	2548	bridge	
090607	10:07	802	JAUR69	41	4269	1	
090607	10:07	802	UR69 flashlight	42	2750	food	
090607	10:07	802	JAUR76	43	4147	2	
090607	10:07	802	UR76 dignity	44	2664	density	
090607	10:07	802	JALH24	45	4692	8	
090607	10:07	802	LH24 feeling	46	2121	feeling	
090607	10:07	802	JAHL53	47	2825	4	
090607	10:07	802	HL53 fish	48	1349	fish	
090607	10:07	802	JAUR55	49	4373	7	
090607	10:07	802	UR55 bargain	50	2976	bargain	
090607	10:07	802	JAUR50	51	4233	1	
090607	10:07	802	UR50 crane	52	2149	crane	
090607	10:07	802	JAHL43	53	2442	8	
090607	10:07	802	HL43 money	54	6648	wtf?	
090607	10:07	802	JALH11	55	6058	2	
090607	10:07	802	LH11 cancer	56	4897	condition	
090607	10:07	802	JAUR77	57	5998	3	
090607	10:07	802	UR77 uncle	58	2064	uncle	
090607	10:07	802	JAUR27	59	5351	6	
090607	10:07	802	UR27 consequence	60	3202	consequence	
090607	10:07	802	JAUR68	61	2274	5	
090607	10:07	802	UR68 fatigue	62	2459	sink	
090607	10:07	802	JAUR22	63	4172	7	
090607	10:07	802	UR22 thesaurus	64	1918	ease	
090607	10:07	802	JAUR07	65	2629	7	
090607	10:07	802	UR07 gathering	66	2430	gathering	
090607	10:07	802	JAUR95	67	1989	6	
090607	10:07	802	UR95 fool	68	2588	blind	
090607	10:07	802	JAUR63	69	1543	4	
090607	10:07	802	UR63 alley	70	2944	bugs	
090607	10:07	802	JAUR06	71	4120	2	
090607	10:07	802	UR06 cello	72	8031	centimeter?	
090607	10:07	802	JAHL34	73	2885	4	
090607	10:07	802	HL34 hunger	74	3057	plague	
090607	10:07	802	JAUR66	75	2808	5	
090607	10:07	802	UR66 chief	76	3052	chase	
090607	10:07	802	JAUR67	77	6199	1	
090607	10:07	802	UR67 producer	78	2925	product	
090607	10:07	802	JAUR36	79	4725	2	
090607	10:07	802	UR36 denim	80	1882	denim	
090607	10:07	802	JAUR34	81	3020	2	
090607	10:07	802	UR34 charity	82	1964	charity	
090607	10:07	802	JALH14	83	5614	2	
090607	10:07	802	LH14 note	84	1530	note	
090607	10:07	802	JAHL50	85	3824	9	
090607	10:07	802	HL50 doctor	86	1827	doctor	
090607	10:07	802	JALH03	87	5197	4	
090607	10:07	802	LH03 yard	88	2285	yard	
090607	10:07	802	JALH22	89	2354	5	
090607	10:07	802	LH22 crowd	90	2100	crowd	
090607	10:07	802	JAUR46	91	2119	4	
090607	10:07	802	UR46 content	92	2044	content	
090607	10:07	802	JAUR75	93	2671	4	
090607	10:07	802	UR75 awe	94	4030	awful	
090607	10:07	802	JAUR78	95	2753	4	
090607	10:07	802	UR78 blender	96	2827	blender	
090607	10:07	802	JAHL39	97	1911	5	
090607	10:07	802	HL39 book	98	1419	book	
090607	10:07	802	JAUR62	99	3515	3	
090607	10:07	802	UR62 chemistry	100	2302	chemistry	
090607	10:07	802	JALH04	101	3261	2	
090607	10:07	802	LH04 grade	102	1976	grade	
090607	10:07	802	JAHL03	103	2394	4	
090607	10:07	802	HL03 cigarette	104	4849	cigarette	
090607	10:07	802	JAUR20	105	1936	5	
090607	10:07	802	UR20 climax	106	2696	control	
090607	10:07	802	JALH23	107	2229	2	
090607	10:07	802	LH23 possibility	108	5487	possibility	
090607	10:07	802	JAHL09	109	2171	4	
090607	10:07	802	HL09 chalk	110	1952	chalk	
090607	10:07	802	JALH01	111	4403	6	
090607	10:07	802	LH01 brain	112	1817	brain	
090607	10:07	802	JAHL42	113	1645	4	
090607	10:07	802	HL42 pie	114	1440	pie	
090607	10:07	802	JALH43	115	4046	3	
090607	10:07	802	LH43 noise	116	1768	noise	
090607	10:07	802	JALH30	117	2293	3	
090607	10:07	802	LH30 assignment	118	2932	assignment	
090607	10:07	802	JALH53	119	1424	4	
090607	10:07	802	LH53 core	120	2164	score	
090607	10:07	802	JAUR47	121	2840	8	
090607	10:07	802	UR47 chimpanzee	122	4804	control	
090607	10:07	802	JAUR42	123	1890	4	
090607	10:07	802	UR42 sergeant	124	2577	maid	
090607	10:07	802	JAUR01	125	2836	4	
090607	10:07	802	UR01 file	126	2754	file	
090607	10:07	802	JAUR87	127	1862	4	
090607	10:07	802	UR87 duty	128	2175	short	
090607	10:07	802	JAHL24	129	3402	8	
090607	10:07	802	HL24 eye	130	2163	eye	
090607	10:07	802	JAUR58	131	1912	8	
090607	10:07	802	UR58 answer	132	2670	answer	
090607	10:07	802	JAHL41	133	1412	4	
090607	10:07	802	HL41 hand	134	1420	hand	
090607	10:07	802	JAUR54	135	2661	3	
090607	10:07	802	UR54 steam	136	2576	stream	
090607	10:07	802	JAUR82	137	3370	7	
090607	10:07	802	UR82 campus	138	1990	campus	
090607	10:07	802	JAHL49	139	4483	3	
090607	10:07	802	HL49 spice	140	1608	spice	
090607	10:07	802	JAUR103	141	2956	9	
090607	10:07	802	UR103 hula	142	2355	ha ha 	
090607	10:07	802	JAUR70	143	1433	5	
090607	10:07	802	UR70 pajamas	144	3268	pain	
090607	10:07	802	JAHL23	145	2948	5	
090607	10:07	802	HL23 baby	146	1730	baby	
090607	10:07	802	JALH09	147	4568	5	
090607	10:07	802	LH09 piece	148	2328	pieces	
090607	10:07	802	JAHL05	149	2557	2	
090607	10:07	802	HL05 mountain	150	4292	mountain	
090607	10:07	802	JAHL25	151	2356	4	
090607	10:07	802	HL25 cut	152	1537	cut	
090607	10:07	802	JAHL32	153	2356	4	
090607	10:07	802	HL32 television	154	3716	television	
090607	10:07	802	JALH38	155	2086	6	
090607	10:07	802	LH38 paint	156	1804	paint	
090607	10:07	802	JAUR52	157	2048	7	
090607	10:07	802	UR52 knight	158	2230	knight	
090607	10:07	802	JAPR28	159	2358	6	
090607	10:07	802	PR28 challenge	160	3823	challenge	
090607	10:07	802	JALH25	161	4113	7	
090607	10:07	802	LH25 track	162	2000	track	
090607	10:07	802	JAUR24	163	1706	7	
090607	10:07	802	UR24 kid	164	1524	kind	
090607	10:07	802	JAUR17	165	1057	5	
090607	10:07	802	UR17 trance	166	2516	trail	
090607	10:07	802	JAHL10	167	1954	8	
090607	10:07	802	HL10 cow	168	1232	cow	
090607	10:07	802	JAUR30	169	1731	6	
090607	10:07	802	UR30 lover	170	3001	lover	
090607	10:07	802	JAUR14	171	2351	7	
090607	10:07	802	UR14 fudge	172	2449	fudge	
090607	10:07	802	JAUR60	173	1513	5	
090607	10:07	802	UR60 plaque	174	2647	plague	
090607	10:07	802	JAHL21	175	1465	7	
090607	10:07	802	HL21 empire	176	1982	empire	
090607	10:07	802	JAHL45	177	1030	5	
090607	10:07	802	HL45 words	178	1706	word	
090607	10:07	802	JAUR107	179	1656	8	
090607	10:07	802	UR107 cocaine	180	2451	cocaine	
090607	10:07	802	JALH46	181	1570	8	
090607	10:07	802	LH46 submarine	182	6344	submarine	
090607	10:07	802	JAUR85	183	1849	5	
090607	10:07	802	UR85 stroke	184	1876	stroke	
090607	10:07	802	JAUR28	185	1952	5	
090607	10:07	802	UR28 bang	186	1600	bang	
090607	10:07	802	JAUR98	187	1985	7	
090607	10:07	802	UR98 latch	188	2828	launcch	
090607	10:07	802	JAUR105	189	1802	4	
090607	10:07	802	UR105 curtain	190	2988	curtains	
090607	10:07	802	JAUR65	191	1790	8	
090607	10:07	802	UR65 checkers	192	3053	cheeks	
090607	10:07	802	JAUR106	193	1928	8	
090607	10:07	802	UR106 eagle	194	2223	wax	
090607	10:07	802	JALH17	195	1629	3	
090607	10:07	802	LH17 life	196	1703	life	
090607	10:07	802	JAUR04	197	1703	9	
090607	10:07	802	UR04 marsh	198	2011	main	
090607	10:07	802	JAHL31	199	4833	6	
090607	10:07	802	HL31 war	200	1490	war	
090607	10:07	802	JALH07	201	1234	8	
090607	10:07	802	LH07 rear	202	1432	rear	
090607	10:07	802	JAHL33	203	2149	8	
090607	10:07	802	HL33 joke	204	1620	joke	
090607	10:07	802	JAHL01	205	2396	8	
090607	10:07	802	HL01 elephant	206	2715	elephant	
090607	10:07	802	JALH37	207	4510	8	
090607	10:07	802	LH37 pad	208	1406	pad	
090607	10:07	802	JAHL14	209	2654	7	
090607	10:07	802	HL14 milk	210	1543	milk	
090607	10:07	802	JAUR96	211	1324	5	
090607	10:07	802	UR96 dessert	212	5562	desert	
090607	10:07	802	JALH32	213	2734	5	
090607	10:07	802	LH32 capacity	214	3594	capability	
090607	10:07	802	JAUR59	215	1984	4	
090607	10:07	802	UR59 copper	216	2923	copy	
090607	10:07	802	JAUR21	217	1989	4	
090607	10:07	802	UR21 ore	218	1814	big	
090607	10:07	802	JSPR26	1	9169	6	
090607	10:07	802	PR26 colonel	2	3697	perfume	
090607	10:07	802	JSPR24	3	2677	5	
090607	10:07	802	PR24 pest	4	1701	pet	
090607	10:07	802	JSPR08	5	1467	7	
090607	10:07	802	PR08 beef	6	2126	beef	
090607	10:07	802	JSPR05	7	2132	9	
090607	10:07	802	PR05 calf	8	5332	cal	
090607	10:07	802	JSPR14	9	2326	5	
090607	10:07	802	PR14 religion	10	2070	sorry	
090607	10:07	802	JSPR19	11	2009	8	
090607	10:07	802	PR19 void	12	3422	swear	
090607	10:07	802	JSPR12	13	6943	7	
090607	10:07	802	PR12 royalty	14	2791	royalty	
090607	10:07	802	JSPR02	15	7268	2	
090607	10:07	802	PR02 wrinkle	16	1708	wife	
090607	10:07	802	JSPR10	17	5376	1	
090607	10:07	802	PR10 camel	18	5277	control	
090607	10:07	802	JSPR15	19	3027	5	
090607	10:07	802	PR15 depletion	20	3796	depletion	
090607	10:07	802	JSPR20	21	2143	8	
090607	10:07	802	PR20 advertisement	22	5977	expertixe	
090607	10:07	802	JSPR29	23	2760	8	
090607	10:07	802	PR29 mermaid	24	2778	amber	
090607	10:07	802	JSPR16	25	3194	6	
090607	10:07	802	PR16 compulsion	26	3135	confusion	
090607	10:07	802	JSPR22	27	13199	6	
090607	10:07	802	PR22 ass	28	1383	tar	
090607	10:07	802	JSPR18	29	1471	5	
090607	10:07	802	PR18 clorox	30	2918	guess	
090607	10:07	802	JSUR33	1	2281	7	
090607	10:07	802	UR33 horror	2	2268	horror	
090607	10:07	802	JSUR41	3	3026	6	
090607	10:07	802	UR41 chime	4	2401	snow	
090607	10:07	802	JSLH06	5	2332	7	
090607	10:07	802	LH06 element	6	1932	element	
090607	10:07	802	JSHL40	7	1735	7	
090607	10:07	802	HL40 temperature	8	6730	temperature	
090607	10:07	802	JSLH10	9	1587	4	
090607	10:07	802	LH10 care	10	1866	care	
090607	10:07	802	JSHL16	11	3173	7	
090607	10:07	802	HL16 broom	12	3533	broom	
090607	10:07	802	JSLH42	13	2871	5	
090607	10:07	802	LH42 thought	14	4643	thinking	
090607	10:07	802	JSLH44	15	2206	7	
090607	10:07	802	LH44 vessel	16	2920	vessel	
090607	10:07	802	JSLH41	17	1627	5	
090607	10:07	802	LH41 girl	18	1514	girl	
090607	10:07	802	JSHL08	19	2123	7	
090607	10:07	802	HL08 math	20	1566	math	
090607	10:07	802	JSHL30	21	2356	5	
090607	10:07	802	HL30 air	22	1216	air	
090607	10:07	802	JSLH34	23	1463	8	
090607	10:07	802	LH34 panel	24	1658	panel	
090607	10:07	802	JSHL37	25	1286	5	
090607	10:07	802	HL37 thread	26	5210	thread	
090607	10:07	802	JSUR23	27	2082	7	
090607	10:07	802	UR23 abundance	28	2909	miss	
090607	10:07	802	JSUR94	29	2114	7	
090607	10:07	802	UR94 bristle	30	3051	skip	
090607	10:07	802	JSLH29	31	1895	5	
090607	10:07	802	LH29 closet	32	2992	closet	
090607	10:07	802	JSUR97	33	1949	5	
090607	10:07	802	UR97 banner	34	1989	banner	
090607	10:07	802	JSUR73	35	2042	5	
090607	10:07	802	UR73 kite	36	5740	knife	
090607	10:07	802	JSHL15	37	2280	2	
090607	10:07	802	HL15 bomb	38	2508	beam	
090607	10:07	802	JSUR05	39	3355	7	
090607	10:07	802	UR05 lease	40	1901	lease	
090607	10:07	802	JSLH40	41	1606	5	
090607	10:07	802	LH40 field	42	3659	rectangel	
090607	10:07	802	JSUR09	43	2809	4	
090607	10:07	802	UR09 education	44	3821	education	
090607	10:07	802	JSHL18	45	1551	7	
090607	10:07	802	HL18 paper	46	1794	paper	
090607	10:07	802	JSUR61	47	1783	5	
090607	10:07	802	UR61 suicide	48	4270	mountain	
090607	10:07	802	JSLH18	49	2002	5	
090607	10:07	802	LH18 edge	50	2384	edge	
090607	10:07	802	JSHL04	51	2652	8	
090607	10:07	802	HL04 beer	52	2883	beer	
090607	10:07	802	JSUR19	53	2345	8	
090607	10:07	802	UR19 bison	54	2477	big	
090607	10:07	802	JSLH12	55	1770	5	
090607	10:07	802	LH12 addition	56	1682	wire	
090607	10:07	802	JSHL02	57	2200	8	
090607	10:07	802	HL02 flower	58	1902	flower	
090607	10:07	802	JSLH36	59	1612	8	
090607	10:07	802	LH36 gang	60	4190	gang	
090607	10:07	802	JSLH48	61	1372	7	
090607	10:07	802	LH48 outcome	62	3057	ounce	
090607	10:07	802	JSLH15	63	1866	7	
090607	10:07	802	LH15 blessing	64	2681	blessing	
090607	10:07	802	JSHL35	65	1646	7	
090607	10:07	802	HL35 cake	66	1677	cake	
090607	10:07	802	JSUR40	67	2927	8	
090607	10:07	802	UR40 dancer	68	2058	danger	
090607	10:07	802	JSUR88	69	3062	1	
090607	10:07	802	UR88 circus	70	6350	circus	
090607	10:07	802	JSUR81	71	3233	3	
090607	10:07	802	UR81 acid	72	2002	acid	
090607	10:07	802	JSUR92	73	1968	8	
090607	10:07	802	UR92 dart	74	1839	dart	
090607	10:07	802	JSHL44	75	3177	9	
090607	10:07	802	HL44 baseball	76	2454	baseball	
090607	10:07	802	JSHL46	77	2003	7	
090607	10:07	802	HL46 butter	78	1988	butter	
090607	10:07	802	JSUR15	79	2841	5	
090607	10:07	802	UR15 compass	80	2814	control	
090607	10:07	802	JSLH35	81	1736	7	
090607	10:07	802	LH35 shelter	82	2324	shelter	
090607	10:07	802	JSUR91	83	2833	8	
090607	10:07	802	UR91 anteater	84	3005	antelope	
090607	10:07	802	JSLH08	85	2745	10	
090607	10:07	802	LH08 house	86	1731	house	
090607	10:07	802	JSLH21	87	1636	5	
090607	10:07	802	LH21 monument	88	2427	monument	
090607	10:07	802	JSUR83	89	1525	7	
090607	10:07	802	UR83 lesson	90	2223	phase	
090607	10:07	802	JSHL22	91	1162	7	
090607	10:07	802	HL22 problem	92	3519	problem,	
090607	10:07	802	JSLH47	93	2195	7	
090607	10:07	802	LH47 detergent	94	3713	detergent	
090607	10:07	802	JSUR56	95	1251	5	
090607	10:07	802	UR56 antler	96	2024	antler	
090607	10:07	802	JSUR80	97	2075	8	
090607	10:07	802	UR80 antique	98	4223	antique	
090607	10:07	802	JSUR11	99	960	5	
090607	10:07	802	UR11 foundation	100	3703	fountain	
090607	10:07	802	JSHL11	101	1680	8	
090607	10:07	802	HL11 rock	102	1536	rock	
090607	10:07	802	JSLH16	103	4662	2	
090607	10:07	802	LH16 power	104	1834	power	
090607	10:07	802	JSUR18	105	2904	5	
090607	10:07	802	UR18 relief	106	2051	relief	
090607	10:07	802	JSLH39	107	1784	5	
090607	10:07	802	LH39 reward	108	5509	trooper	
090607	10:07	802	JSUR79	109	3555	1	
090607	10:07	802	UR79 beetle	110	2445	beetle	
090607	10:07	802	JSUR102	111	1439	8	
090607	10:07	802	UR102 velocity	112	3049	victory	
090607	10:07	802	JSUR101	113	2498	1	
090607	10:07	802	UR101 beard	114	2073	beer	
090607	10:07	802	JSUR72	115	1947	4	
090607	10:07	802	UR72 band	116	1651	band	
090607	10:07	802	JSUR51	117	1912	8	
090607	10:07	802	UR51 cabbage	118	3378	cabbage	
090607	10:07	802	JSHL54	119	1575	5	
090607	10:07	802	HL54 indian	120	4833	indian	
090607	10:07	802	JSUR39	121	1257	5	
090607	10:07	802	UR39 faith	122	1828	faith	
090607	10:07	802	JSUR49	123	1225	7	
090607	10:07	802	UR49 casket	124	3495	closet	
090607	10:07	802	JSLH49	125	1332	5	
090607	10:07	802	LH49 kindness	126	2763	kindness	
090607	10:07	802	JSUR10	127	1530	5	
090607	10:07	802	UR10 tribe	128	2460	trail	
090607	10:07	802	JSHL06	129	1861	7	
090607	10:07	802	HL06 egg	130	3022	egg	
090607	10:07	802	JSUR71	131	7565	7	
090607	10:07	802	UR71 padding	132	2051	padding	
090607	10:07	802	JSUR25	133	949	5	
090607	10:07	802	UR25 partner	134	5122	food	
090607	10:07	802	JSUR03	135	2312	7	
090607	10:07	802	UR03 vehicle	136	2882	vehicle	
090607	10:07	802	JSHL28	137	976	5	
090607	10:07	802	HL28 bird	138	2615	bird	
090607	10:07	802	JSUR100	139	1168	5	
090607	10:07	802	UR100 comb	140	2158	code	
090607	10:07	802	JSUR89	141	1268	7	
090607	10:07	802	UR89 crow	142	1664	crow	
090607	10:07	802	JSUR29	143	2585	3	
090607	10:07	802	UR29 patrol	144	1676	path	
090607	10:07	802	JSHL38	145	1397	2	
090607	10:07	802	HL38 boat	146	1435	boat	
090607	10:07	802	JSLH33	147	1419	8	
090607	10:07	802	LH33 fable	148	1780	fable	
090607	10:07	802	JSUR31	149	890	4	
090607	10:07	802	UR31 diameter	150	3773	diameter	
090607	10:07	802	JSHL19	151	1530	8	
090607	10:07	802	HL19 car	152	1746	car	
090607	10:07	802	JSLH31	153	1282	7	
090607	10:07	802	LH31 self	154	1824	self	
090607	10:07	802	JSLH13	155	802	4	
090607	10:07	802	LH13 crease	156	1955	crease	
090607	10:07	802	JSUR37	157	915	7	
090607	10:07	802	UR37 cloth	158	2432	cop	
090607	10:07	802	JSHL27	159	1348	7	
090607	10:07	802	HL27 rain	160	1287	rain	
090607	10:07	802	JSUR104	161	2664	4	
090607	10:07	802	UR104 aardvark	162	3913	vowel	
090607	10:07	802	JSUR38	163	1211	5	
090607	10:07	802	UR38 energy	164	6500	i dont know	
090607	10:07	802	JSUR90	165	2984	2	
090607	10:07	802	UR90 sailing	166	2171	sailing	
090607	10:07	802	JSUR57	167	1166	7	
090607	10:07	802	UR57 benefit	168	5223	belife	
090607	10:07	802	JSUR86	169	969	5	
090607	10:07	802	UR86 boulevard	170	1396		
090607	10:07	802	JSLH45	171	3534	5	
090607	10:07	802	LH45 intellect	172	4921	intelligence	
090607	10:07	802	JSLH26	173	1267	7	
090607	10:07	802	LH26 center	174	5220	contract	
090607	10:07	802	JSUR12	175	4315	7	
090607	10:07	802	UR12 unicorn	176	2535	scissor	
090607	10:07	802	JSUR108	177	1023	5	
090607	10:07	802	UR108 shield	178	5116	shield	
090607	10:07	802	JSUR99	179	1637	5	
090607	10:07	802	UR99 branch	180	3501	branch	
090607	10:07	802	JSHL29	181	1175	7	
090607	10:07	802	HL29 ring	182	1582	ring	
090607	10:07	802	JSHL26	183	1020	4	
090607	10:07	802	HL26 light	184	3472	electricity	
090607	10:07	802	JSLH28	185	674	7	
090607	10:07	802	LH28 vagrant	186	3905	ventage	
090607	10:07	802	JSHL52	187	2496	7	
090607	10:07	802	HL52 sand	188	1526	sand	
090607	10:07	802	JSHL48	189	1818	4	
090607	10:07	802	HL48 airplane	190	6111	airplane	
090607	10:07	802	JSUR43	191	1696	5	
090607	10:07	802	UR43 balloon	192	3616	vote	
090607	10:07	802	JSUR93	193	1750	5	
090607	10:07	802	UR93 catcher	194	3381		
090607	10:07	802	JSHL20	195	1529	5	
090607	10:07	802	HL20 wine	196	1708	wine	
090607	10:07	802	JSHL13	197	4765	5	
090607	10:07	802	HL13 map	198	2423	map	
090607	10:07	802	JSHL12	199	2568	7	
090607	10:07	802	HL12 space	200	2099	space	
090607	10:07	802	JSUR02	201	3766	10	
090607	10:07	802	UR02 comma	202	1986	comma	
090607	10:07	802	JSUR48	203	4465	10	
090607	10:07	802	UR48 democracy	204	3230	democracy	
090607	10:07	802	JSUR08	205	1304	4	
090607	10:07	802	UR08 assistant	206	2092	assist	
090607	10:07	802	JSUR84	207	3505	2	
090607	10:07	802	UR84 flag	208	1460	flag	
090607	10:07	802	JSUR26	209	2413	6	
090607	10:07	802	UR26 eternity	210	3121	ethnicity	
090607	10:07	802	JSLH52	211	1418	5	
090607	10:07	802	LH52 bureau	212	2517		
090607	10:07	802	JSUR44	213	1057	5	
090607	10:07	802	UR44 rot	214	1317	ball	
090607	10:07	802	JSUR16	215	1386	5	
090607	10:07	802	UR16 century	216	2406	money	
date	time	subject	trialcode	trialnum	latency	response	
090607	10:09	804	JSPR17	1	21263	6	
090607	10:09	804	PR17 emerald	2	92303	guess	
090607	10:09	804	JSPR27	3	7486	8	
090607	10:09	804	PR27 wheat	4	14532	guess	
090607	10:09	804	JSPR07	5	7506	9	
090607	10:09	804	PR07 bog	6	23270	guess	
090607	10:09	804	JSPR23	7	7124	6	
090607	10:09	804	PR23 companion	8	8353	guess	
090607	10:09	804	JSPR06	9	8551	4	
090607	10:09	804	PR06 beast	10	10719	guess	
090607	10:09	804	JSPR09	11	15310	5	
090607	10:09	804	PR09 album	12	7296	guess	
090607	10:09	804	JSPR21	13	12779	7	
090607	10:09	804	PR21 innocence	14	6821	guess	
090607	10:09	804	JSPR01	15	10294	5	
090607	10:09	804	PR01 cash	16	10699	guess	
090607	10:09	804	JSPR11	17	9843	6	
090607	10:09	804	PR11 ounce	18	20048	guezz	
090607	10:09	804	JSPR25	19	9808	4	
090607	10:09	804	PR25 saliva	20	5428	oliver	
090607	10:09	804	JSPR30	21	11349	5	
090607	10:09	804	PR30 maiden	22	5045	family	
090607	10:09	804	JSPR03	23	7197	5	
090607	10:09	804	PR03 acre	24	9512	hazel	
090607	10:09	804	JSPR13	25	5632	4	
090607	10:09	804	PR13 ambition	26	6123	guess	
090607	10:09	804	JSPR04	27	5917	4	
090607	10:09	804	PR04 diaper	28	4497	pearl	
090607	10:09	804	JSPR28	29	15211	7	
090607	10:09	804	PR28 challenge	30	7539	castle	
090607	10:09	804	JSUR42	1	7763	8	
090607	10:09	804	UR42 sergeant	2	5932	slave	
090607	10:09	804	JSUR52	3	3490	4	
090607	10:09	804	UR52 knight	4	4643	tied	
090607	10:09	804	JSLH01	5	5029	8	
090607	10:09	804	LH01 brain	6	8717	guess	
090607	10:09	804	JSHL45	7	3628	8	
090607	10:09	804	HL45 words	8	3824	help	
090607	10:09	804	JSLH03	9	8521	4	
090607	10:09	804	LH03 yard	10	4019	field	
090607	10:09	804	JSHL21	11	3405	5	
090607	10:09	804	HL21 empire	12	3419	guess	
090607	10:09	804	JSLH38	13	8138	6	
090607	10:09	804	LH38 paint	14	8182	paint	
090607	10:09	804	JSLH43	15	7885	6	
090607	10:09	804	LH43 noise	16	10092	ocean	
090607	10:09	804	JSLH37	17	10063	8	
090607	10:09	804	LH37 pad	18	12506	guess	
090607	10:09	804	JSHL07	19	6549	7	
090607	10:09	804	HL07 king	20	4437	king	
090607	10:09	804	JSHL39	21	10151	6	
090607	10:09	804	HL39 book	22	3829	book	
090607	10:09	804	JSLH24	23	10698	7	
090607	10:09	804	LH24 feeling	24	5181	feeling	
090607	10:09	804	JSHL42	25	10996	8	
090607	10:09	804	HL42 pie	26	3091	pie	
090607	10:09	804	JSUR30	27	8530	6	
090607	10:09	804	UR30 lover	28	10068	love	
090607	10:09	804	JSUR95	29	5187	8	
090607	10:09	804	UR95 fool	30	2547	fool	
090607	10:09	804	JSLH20	31	8497	5	
090607	10:09	804	LH20 violation	32	4029	guess	
090607	10:09	804	JSUR96	33	21217	3	
090607	10:09	804	UR96 dessert	34	12047	desert	
090607	10:09	804	JSUR66	35	4168	4	
090607	10:09	804	UR66 chief	36	4061	brief	
090607	10:09	804	JSHL17	37	6240	3	
090607	10:09	804	HL17 soap	38	4335	guess	
090607	10:09	804	JSUR06	39	5545	5	
090607	10:09	804	UR06 cello	40	5706	hole	
090607	10:09	804	JSLH32	41	3637	4	
090607	10:09	804	LH32 capacity	42	3376	capacity	
090607	10:09	804	JSUR103	43	13121	10	
090607	10:09	804	UR103 hula	44	6874	clown	
090607	10:09	804	JSHL23	45	8240	7	
090607	10:09	804	HL23 baby	46	3429	baby	
090607	10:09	804	JSUR63	47	5449	5	
090607	10:09	804	UR63 alley	48	25414	guess	
090607	10:09	804	JSLH11	49	4948	2	
090607	10:09	804	LH11 cancer	50	2987	cancer	
090607	10:09	804	JSHL03	51	3291	7	
090607	10:09	804	HL03 cigarette	52	5916	cigarette	
090607	10:09	804	JSUR28	53	3262	8	
090607	10:09	804	UR28 bang	54	2849	bang	
090607	10:09	804	JSLH04	55	2630	8	
090607	10:09	804	LH04 grade	56	3693	dot	
090607	10:09	804	JSHL01	57	5120	4	
090607	10:09	804	HL01 elephant	58	3797	elephant	
090607	10:09	804	JSLH27	59	10221	3	
090607	10:09	804	LH27 condition	60	3491	condition	
090607	10:09	804	JSLH51	61	4383	5	
090607	10:09	804	LH51 exit	62	3150	exit	
090607	10:09	804	JSLH07	63	6746	7	
090607	10:09	804	LH07 rear	64	3249	guess	
090607	10:09	804	JSHL41	65	5043	1	
090607	10:09	804	HL41 hand	66	3798	hand	
090607	10:09	804	JSUR50	67	3434	1	
090607	10:09	804	UR50 crane	68	3495	crane	
090607	10:09	804	JSUR76	69	5155	4	
090607	10:09	804	UR76 dignity	70	8825	guess	
090607	10:09	804	JSUR69	71	2595	4	
090607	10:09	804	UR69 flashlight	72	3991	light	
090607	10:09	804	JSUR85	73	5039	5	
090607	10:09	804	UR85 stroke	74	4608	guess	
090607	10:09	804	JSHL47	75	2617	7	
090607	10:09	804	HL47 horse	76	4059	bull	
090607	10:09	804	JSHL49	77	5381	5	
090607	10:09	804	HL49 spice	78	6543	guess	
090607	10:09	804	JSUR22	79	6569	3	
090607	10:09	804	UR22 thesaurus	80	3308	guess	
090607	10:09	804	JSLH25	81	3935	5	
090607	10:09	804	LH25 track	82	2883	class	
090607	10:09	804	JSUR82	83	2557	6	
090607	10:09	804	UR82 campus	84	7161	guess	
090607	10:09	804	JSLH02	85	7044	6	
090607	10:09	804	LH02 harm	86	2228	harm	
090607	10:09	804	JSLH14	87	5141	3	
090607	10:09	804	LH14 note	88	2307	mail	
090607	10:09	804	JSUR70	89	29105	4	
090607	10:09	804	UR70 pajamas	90	5235	stove	
090607	10:09	804	JSHL31	91	6076	6	
090607	10:09	804	HL31 war	92	2768	war	
090607	10:09	804	JSLH50	93	5062	4	
090607	10:09	804	LH50 measure	94	9732	na	
090607	10:09	804	JSUR60	95	3230	4	
090607	10:09	804	UR60 plaque	96	7855	plank	
090607	10:09	804	JSUR68	97	6099	5	
090607	10:09	804	UR68 fatigue	98	2541	drain	
090607	10:09	804	JSUR20	99	54309	5	
090607	10:09	804	UR20 climax	100	5032	heat	
090607	10:09	804	JSHL09	101	3289	5	
090607	10:09	804	HL09 chalk	102	4144	gues	
090607	10:09	804	JSLH09	103	6514	6	
090607	10:09	804	LH09 piece	104	2929	piece	
090607	10:09	804	JSUR27	105	3219	6	
090607	10:09	804	UR27 consequence	106	4492	control	
090607	10:09	804	JSLH30	107	5653	8	
090607	10:09	804	LH30 assignment	108	7201	guess	
090607	10:09	804	JSUR67	109	3715	5	
090607	10:09	804	UR67 producer	110	3192	produce	
090607	10:09	804	JSUR13	111	2515	5	
090607	10:09	804	UR13 almanac	112	6933	lamanc	
090607	10:09	804	JSUR107	113	3122	7	
090607	10:09	804	UR107 cocaine	114	3885	cost	
090607	10:09	804	JSUR65	115	2878	9	
090607	10:09	804	UR65 checkers	116	4073	guess	
090607	10:09	804	JSUR59	117	3344	8	
090607	10:09	804	UR59 copper	118	4093	copy	
090607	10:09	804	JSHL53	119	13594	7	
090607	10:09	804	HL53 fish	120	2689	fish	
090607	10:09	804	JSUR47	121	9898	5	
090607	10:09	804	UR47 chimpanzee	122	6092	chiney	
090607	10:09	804	JSUR58	123	6376	4	
090607	10:09	804	UR58 answer	124	4978	broke	
090607	10:09	804	JSLH53	125	4221	7	
090607	10:09	804	LH53 core	126	3337	guess	
090607	10:09	804	JSUR105	127	9547	1	
090607	10:09	804	UR105 curtain	128	3597	guess	
090607	10:09	804	JSHL05	129	2251	4	
090607	10:09	804	HL05 mountain	130	4240	mountain	
090607	10:09	804	JSUR64	131	4524	5	
090607	10:09	804	UR64 fist	132	4206	dollar	
090607	10:09	804	JSUR32	133	3671	4	
090607	10:09	804	UR32 navigator	134	4384	navigator	
090607	10:09	804	JSUR04	135	2478	7	
090607	10:09	804	UR04 marsh	136	8346	marsh	
090607	10:09	804	JSHL34	137	7405	6	
090607	10:09	804	HL34 hunger	138	5262	longer	
090607	10:09	804	JSUR106	139	3264	4	
090607	10:09	804	UR106 eagle	140	2910	eagle	
090607	10:09	804	JSUR77	141	4279	6	
090607	10:09	804	UR77 uncle	142	7144	chapter	
090607	10:09	804	JSUR35	143	6810	5	
090607	10:09	804	UR35 cause	144	9367	guess	
090607	10:09	804	JSHL43	145	6808	6	
090607	10:09	804	HL43 money	146	3553	money	
090607	10:09	804	JSLH23	147	3995	8	
090607	10:09	804	LH23 possibility	148	3924	possibility	
090607	10:09	804	JSUR36	149	3768	5	
090607	10:09	804	UR36 denim	150	4336	guess	
090607	10:09	804	JSHL24	151	4074	4	
090607	10:09	804	HL24 eye	152	2740	mess	
090607	10:09	804	JSLH22	153	8293	7	
090607	10:09	804	LH22 crowd	154	4691	mass	
090607	10:09	804	JSLH05	155	4053	4	
090607	10:09	804	LH05 chain	156	1989	chain	
090607	10:09	804	JSUR45	157	6488	8	
090607	10:09	804	UR45 bridge	158	9257	guess	
090607	10:09	804	JSHL33	159	4296	4	
090607	10:09	804	HL33 joke	160	1908	joke	
090607	10:09	804	JSUR14	161	6331	8	
090607	10:09	804	UR14 fudge	162	2869	felon	
090607	10:09	804	JSUR46	163	3990	7	
090607	10:09	804	UR46 content	164	7429	bottle	
090607	10:09	804	JSUR78	165	4832	7	
090607	10:09	804	UR78 blender	166	4480	blender	
090607	10:09	804	JSUR62	167	3292	6	
090607	10:09	804	UR62 chemistry	168	3060	chemistry	
090607	10:09	804	JSUR75	169	3228	4	
090607	10:09	804	UR75 awe	170	2706	guess	
090607	10:09	804	JSLH46	171	3164	1	
090607	10:09	804	LH46 submarine	172	3564	submarine	
090607	10:09	804	JSLH17	173	5404	7	
090607	10:09	804	LH17 life	174	2327	life	
090607	10:09	804	JSUR21	175	5096	6	
090607	10:09	804	UR21 ore	176	2799	tree	
090607	10:09	804	JSUR17	177	6018	5	
090607	10:09	804	UR17 trance	178	4955	trance	
090607	10:09	804	JSUR98	179	8906	6	
090607	10:09	804	UR98 latch	180	9690	volcanoe	
090607	10:09	804	JSHL36	181	3494	2	
090607	10:09	804	HL36 football	182	4838	football	
090607	10:09	804	JSHL32	183	2584	2	
090607	10:09	804	HL32 television	184	4006	television	
090607	10:09	804	JSLH19	185	3074	6	
090607	10:09	804	LH19 snob	186	2954	guess	
090607	10:09	804	JSHL51	187	2613	5	
090607	10:09	804	HL51 color	188	2455	color	
090607	10:09	804	JSHL50	189	3329	5	
090607	10:09	804	HL50 doctor	190	3243	doctor	
090607	10:09	804	JSUR53	191	16116	7	
090607	10:09	804	UR53 hell	192	6398	clothes	
090607	10:09	804	JSUR87	193	6288	8	
090607	10:09	804	UR87 duty	194	3512	guess	
090607	10:09	804	JSHL25	195	5019	8	
090607	10:09	804	HL25 cut	196	5472	cut	
090607	10:09	804	JSHL14	197	5796	6	
090607	10:09	804	HL14 milk	198	4533	milk	
090607	10:09	804	JSHL10	199	2666	5	
090607	10:09	804	HL10 cow	200	1992	cow	
090607	10:09	804	JSUR01	201	10601	6	
090607	10:09	804	UR01 file	202	3617	guess	
090607	10:09	804	JSUR55	203	4190	6	
090607	10:09	804	UR55 bargain	204	3597	bargain	
090607	10:09	804	JSUR07	205	2442	8	
090607	10:09	804	UR07 gathering	206	2659	guess	
090607	10:09	804	JSUR74	207	6222	7	
090607	10:09	804	UR74 suitcase	208	6822	sunset	
090607	10:09	804	JSUR34	209	2269	8	
090607	10:09	804	UR34 charity	210	6449	charity	
090607	10:09	804	JSLH54	211	4838	7	
090607	10:09	804	LH54 limit	212	2159	limit	
090607	10:09	804	JSUR54	213	3478	5	
090607	10:09	804	UR54 steam	214	4542	guess	
090607	10:09	804	JSUR24	215	2777	9	
090607	10:09	804	UR24 kid	216	2670	kid	
090607	10:09	804	JAPR26	1	15273	4	
090607	10:09	804	PR26 colonel	2	7920	guess	
090607	10:09	804	JAPR24	3	6911	4	
090607	10:09	804	PR24 pest	4	2624	pest	
090607	10:09	804	JAPR08	5	4827	9	
090607	10:09	804	PR08 beef	6	3688	nest	
090607	10:09	804	JAPR05	7	3939	9	
090607	10:09	804	PR05 calf	8	3083	year	
090607	10:09	804	JAPR14	9	8122	7	
090607	10:09	804	PR14 religion	10	3225	religion	
090607	10:09	804	JAPR19	11	4279	7	
090607	10:09	804	PR19 void	12	6425	guess	
090607	10:09	804	JAPR12	13	4080	8	
090607	10:09	804	PR12 royalty	14	4720	royalty	
090607	10:09	804	JAPR02	15	6129	4	
090607	10:09	804	PR02 wrinkle	16	3258	wrinkle	
090607	10:09	804	JAPR10	17	5203	3	
090607	10:09	804	PR10 camel	18	4519	came	
090607	10:09	804	JAPR15	19	5262	3	
090607	10:09	804	PR15 depletion	20	7620	completion	
090607	10:09	804	JAPR20	21	4032	4	
090607	10:09	804	PR20 advertisement	22	5305	experiment	
090607	10:09	804	JAPR29	23	6525	5	
090607	10:09	804	PR29 mermaid	24	3846	mermaid	
090607	10:09	804	JAPR16	25	5622	5	
090607	10:09	804	PR16 compulsion	26	4103	companion	
090607	10:09	804	JAPR22	27	8944	3	
090607	10:09	804	PR22 ass	28	2567	guess	
090607	10:09	804	JAUR43	1	9366	2	
090607	10:09	804	UR43 balloon	2	10253	balloon	
090607	10:09	804	JAUR102	3	5961	3	
090607	10:09	804	UR102 velocity	4	3610	velocity	
090607	10:09	804	JAHL08	5	8035	5	
090607	10:09	804	HL08 math	6	3693	math	
090607	10:09	804	JALH13	7	6501	5	
090607	10:09	804	LH13 crease	8	2225	case	
090607	10:09	804	JALH08	9	3940	4	
090607	10:09	804	LH08 house	10	2416	house	
090607	10:09	804	JAUR71	11	9228	6	
090607	10:09	804	UR71 padding	12	2833	guess	
090607	10:09	804	JAUR25	13	5867	3	
090607	10:09	804	UR25 partner	14	3517	partner	
090607	10:09	804	JALH47	15	5363	6	
090607	10:09	804	LH47 detergent	16	10865	detergent	
090607	10:09	804	JALH36	17	5434	3	
090607	10:09	804	LH36 gang	18	3564	gang	
090607	10:09	804	JAHL15	19	3515	7	
090607	10:09	804	HL15 bomb	20	4034	bomb	
090607	10:09	804	JAUR84	21	9711	6	
090607	10:09	804	UR84 flag	22	2290	flag	
090607	10:09	804	JAHL29	23	5571	8	
090607	10:09	804	HL29 ring	24	2194	ring	
090607	10:09	804	JALH29	25	3364	7	
090607	10:09	804	LH29 closet	26	4872	closet	
090607	10:09	804	JALH52	27	7741	7	
090607	10:09	804	LH52 bureau	28	1935	bean	
090607	10:09	804	JALH48	29	4862	4	
090607	10:09	804	LH48 outcome	30	2615	become	
090607	10:09	804	JAUR29	31	5573	2	
090607	10:09	804	UR29 patrol	32	2641	patrol	
090607	10:09	804	JALH28	33	5747	2	
090607	10:09	804	LH28 vagrant	34	3910	guess	
090607	10:09	804	JAHL52	35	7063	3	
090607	10:09	804	HL52 sand	36	2189	sand	
090607	10:09	804	JAHL44	37	2804	8	
090607	10:09	804	HL44 baseball	38	4349	baseball	
090607	10:09	804	JAUR37	39	5540	3	
090607	10:09	804	UR37 cloth	40	2814	cloth	
090607	10:09	804	JAUR81	41	5320	2	
090607	10:09	804	UR81 acid	42	3900	decide	
090607	10:09	804	JAUR88	43	17048	4	
090607	10:09	804	UR88 circus	44	2179	town	
090607	10:09	804	JALH34	45	2633	8	
090607	10:09	804	LH34 panel	46	2231	pen	
090607	10:09	804	JAHL54	47	3547	8	
090607	10:09	804	HL54 indian	48	2510	indian	
090607	10:09	804	JAUR48	49	3835	9	
090607	10:09	804	UR48 democracy	50	4972	democracy	
090607	10:09	804	JAUR40	51	2569	8	
090607	10:09	804	UR40 dancer	52	4956	scalp	
090607	10:09	804	JAHL38	53	3562	4	
090607	10:09	804	HL38 boat	54	2034	boat	
090607	10:09	804	JALH18	55	2713	9	
090607	10:09	804	LH18 edge	56	2199	edge	
090607	10:09	804	JAUR89	57	9890	4	
090607	10:09	804	UR89 crow	58	2499	crow	
090607	10:09	804	JAUR18	59	6135	9	
090607	10:09	804	UR18 relief	60	3064	relief	
090607	10:09	804	JAUR80	61	3231	9	
090607	10:09	804	UR80 antique	62	3201	guess	
090607	10:09	804	JAUR15	63	4889	8	
090607	10:09	804	UR15 compass	64	3643	heart	
090607	10:09	804	JAUR08	65	9385	8	
090607	10:09	804	UR08 assistant	66	3098	guess	
090607	10:09	804	JAUR94	67	2572	9	
090607	10:09	804	UR94 bristle	68	5576	baggage	
090607	10:09	804	JAUR61	69	2987	3	
090607	10:09	804	UR61 suicide	70	5802	suicide	
090607	10:09	804	JAUR05	71	10472	2	
090607	10:09	804	UR05 lease	72	2627	guess	
090607	10:09	804	JAHL28	73	6122	3	
090607	10:09	804	HL28 bird	74	5727	bird	
090607	10:09	804	JAUR73	75	4391	8	
090607	10:09	804	UR73 kite	76	3021	towel	
090607	10:09	804	JAUR79	77	5508	5	
090607	10:09	804	UR79 beetle	78	3968	beetle	
090607	10:09	804	JAUR31	79	10185	2	
090607	10:09	804	UR31 diameter	80	3403	diameter	
090607	10:09	804	JAUR26	81	2581	9	
090607	10:09	804	UR26 eternity	82	10689	ethnicity	
090607	10:09	804	JALH21	83	4088	9	
090607	10:09	804	LH21 monument	84	3564	monument	
090607	10:09	804	JAHL48	85	4546	7	
090607	10:09	804	HL48 airplane	86	4742	airplane	
090607	10:09	804	JALH10	87	2644	8	
090607	10:09	804	LH10 care	88	7280	cancer	
090607	10:09	804	JALH31	89	5972	2	
090607	10:09	804	LH31 self	90	17491	ourselves	
090607	10:09	804	JAUR38	91	5680	4	
090607	10:09	804	UR38 energy	92	3189	enemy	
090607	10:09	804	JAUR86	93	6831	5	
090607	10:09	804	UR86 boulevard	94	4466	boulevard	
090607	10:09	804	JAUR90	95	3836	4	
090607	10:09	804	UR90 sailing	96	3481	guess	
090607	10:09	804	JAHL30	97	3703	3	
090607	10:09	804	HL30 air	98	2297	fair	
090607	10:09	804	JAUR57	99	3849	7	
090607	10:09	804	UR57 benefit	100	4535	benefit	
090607	10:09	804	JALH12	101	5462	7	
090607	10:09	804	LH12 addition	102	2399	guess	
090607	10:09	804	JAHL04	103	2697	8	
090607	10:09	804	HL04 beer	104	2104	beer	
090607	10:09	804	JAUR11	105	5970	7	
090607	10:09	804	UR11 foundation	106	3082	foundation	
090607	10:09	804	JALH33	107	2372	9	
090607	10:09	804	LH33 fable	108	4554	fable	
090607	10:09	804	JAHL11	109	3134	7	
090607	10:09	804	HL11 rock	110	6552	rock	
090607	10:09	804	JALH06	111	6165	3	
090607	10:09	804	LH06 element	112	2620	element	
090607	10:09	804	JAHL37	113	3445	2	
090607	10:09	804	HL37 thread	114	2707	thread	
090607	10:09	804	JALH44	115	3920	3	
090607	10:09	804	LH44 vessel	116	3259	vessel	
090607	10:09	804	JALH39	117	6566	3	
090607	10:09	804	LH39 reward	118	3024	reward	
090607	10:09	804	JALH49	119	4922	4	
090607	10:09	804	LH49 kindness	120	3600	kindness	
090607	10:09	804	JAUR39	121	5901	9	
090607	10:09	804	UR39 faith	122	2794	faith	
090607	10:09	804	JAUR33	123	2545	8	
090607	10:09	804	UR33 horror	124	3256	horror	
090607	10:09	804	JAUR02	125	2157	9	
090607	10:09	804	UR02 comma	126	2776	comet	
090607	10:09	804	JAUR93	127	2562	8	
090607	10:09	804	UR93 catcher	128	3289	guess	
090607	10:09	804	JAHL19	129	3466	3	
090607	10:09	804	HL19 car	130	3045	guess	
090607	10:09	804	JAUR49	131	4899	8	
090607	10:09	804	UR49 casket	132	4451	casheir	
090607	10:09	804	JAHL35	133	3053	5	
090607	10:09	804	HL35 cake	134	2122	cake	
090607	10:09	804	JAUR44	135	3470	6	
090607	10:09	804	UR44 rot	136	4720	diamond	
090607	10:09	804	JAUR91	137	2881	7	
090607	10:09	804	UR91 anteater	138	5533	theater	
090607	10:09	804	JAHL46	139	3324	1	
090607	10:09	804	HL46 butter	140	3019	little	
090607	10:09	804	JAUR09	141	3624	4	
090607	10:09	804	UR09 education	142	3729	guess	
090607	10:09	804	JAUR83	143	6130	7	
090607	10:09	804	UR83 lesson	144	2285	lesson	
090607	10:09	804	JAHL18	145	11066	5	
090607	10:09	804	HL18 paper	146	5529	newspaper	
090607	10:09	804	JALH16	147	6154	4	
090607	10:09	804	LH16 power	148	3164	guess	
090607	10:09	804	JAHL06	149	93016	8	
090607	10:09	804	HL06 egg	150	1901	egg	
090607	10:09	804	JAHL20	151	2520	7	
090607	10:09	804	HL20 wine	152	1919	wine	
090607	10:09	804	JAHL26	153	2670	4	
090607	10:09	804	HL26 light	154	1802	light	
090607	10:09	804	JALH42	155	4547	2	
090607	10:09	804	LH42 thought	156	3735	thought	
090607	10:09	804	JAUR41	157	2013	7	
090607	10:09	804	UR41 chime	158	2124	chimes	
090607	10:09	804	JAPR18	159	4336	8	
090607	10:09	804	PR18 clorox	160	3257	guess	
090607	10:09	804	JALH35	161	14269	8	
090607	10:09	804	LH35 shelter	162	3561	shelter	
090607	10:09	804	JAUR16	163	2304	8	
090607	10:09	804	UR16 century	164	2827	century	
090607	10:09	804	JAUR108	165	3414	8	
090607	10:09	804	UR108 shield	166	2911	guess	
090607	10:09	804	JAHL12	167	1891	8	
090607	10:09	804	HL12 space	168	2044	space	
090607	10:09	804	JAUR23	169	3304	2	
090607	10:09	804	UR23 abundance	170	4301	abundance	
090607	10:09	804	JAUR104	171	4979	9	
090607	10:09	804	UR104 aardvark	172	2854	guess	
090607	10:09	804	JAUR56	173	4346	6	
090607	10:09	804	UR56 antler	174	2079	antler	
090607	10:09	804	JAHL16	175	5187	7	
090607	10:09	804	HL16 broom	176	2390	broom	
090607	10:09	804	JAHL40	177	3405	7	
090607	10:09	804	HL40 temperature	178	4948	temperature	
090607	10:09	804	JAUR101	179	3532	4	
090607	10:09	804	UR101 beard	180	3384	guess	
090607	10:09	804	JALH45	181	7404	5	
090607	10:09	804	LH45 intellect	182	14085	intelligence	
090607	10:09	804	JAUR92	183	3104	6	
090607	10:09	804	UR92 dart	184	2561	guess	
090607	10:09	804	JAUR19	185	6884	3	
090607	10:09	804	UR19 bison	186	2750	bison	
090607	10:09	804	JAUR99	187	8632	3	
090607	10:09	804	UR99 branch	188	3347	grain	
090607	10:09	804	JAUR10	189	2524	2	
090607	10:09	804	UR10 tribe	190	2608	tribe	
090607	10:09	804	JAUR72	191	2461	5	
090607	10:09	804	UR72 band	192	2421	brand	
090607	10:09	804	JAUR100	193	4893	5	
090607	10:09	804	UR100 comb	194	3351	comb	
090607	10:09	804	JALH26	195	2697	8	
090607	10:09	804	LH26 center	196	2197	center	
090607	10:09	804	JAUR03	197	2744	4	
090607	10:09	804	UR03 vehicle	198	3527	vehicle	
090607	10:09	804	JAHL22	199	4766	8	
090607	10:09	804	HL22 problem	200	3518	problem	
090607	10:09	804	JALH15	201	2167	9	
090607	10:09	804	LH15 blessing	202	3084	blessing	
090607	10:09	804	JAHL27	203	3818	6	
090607	10:09	804	HL27 rain	204	1491	rain	
090607	10:09	804	JAHL02	205	3081	7	
090607	10:09	804	HL02 flower	206	2289	flower	
090607	10:09	804	JALH41	207	5522	8	
090607	10:09	804	LH41 girl	208	1942	girl	
090607	10:09	804	JAHL13	209	6039	7	
090607	10:09	804	HL13 map	210	4507	map	
090607	10:09	804	JAUR97	211	3020	8	
090607	10:09	804	UR97 banner	212	2861	guess	
090607	10:09	804	JALH40	213	24475	3	
090607	10:09	804	LH40 field	214	2550	field	
090607	10:09	804	JAUR51	215	4379	5	
090607	10:09	804	UR51 cabbage	216	11589	guess	
090607	10:09	804	JAUR12	217	3205	6	
090607	10:09	804	UR12 unicorn	218	2678	unicorn	
date	time	subject	trialcode	trialnum	latency	response	
090607	11:06	807	JAPR17	1	29418	4	
090607	11:06	807	PR17 emerald	2	23135	tree	
090607	11:06	807	JAPR27	3	9181	10	
090607	11:06	807	PR27 wheat	4	10816	marriage	
090607	11:06	807	JAPR07	5	6959	10	
090607	11:06	807	PR07 bog	6	4962	music	
090607	11:06	807	JAPR23	7	19443	7	
090607	11:06	807	PR23 companion	8	3684	control	
090607	11:06	807	JAPR06	9	5268	9	
090607	11:06	807	PR06 beast	10	4091	movie	
090607	11:06	807	JAPR09	11	8301	10	
090607	11:06	807	PR09 album	12	4164	school	
090607	11:06	807	JAPR21	13	6095	4	
090607	11:06	807	PR21 innocence	14	3883	fact	
090607	11:06	807	JAPR01	15	4085	8	
090607	11:06	807	PR01 cash	16	2890	cash	
090607	11:06	807	JAPR11	17	6654	7	
090607	11:06	807	PR11 ounce	18	4643	window	
090607	11:06	807	JAPR25	19	8553	3	
090607	11:06	807	PR25 saliva	20	5282	saliva	
090607	11:06	807	JAPR30	21	2813	8	
090607	11:06	807	PR30 maiden	22	8180	people	
090607	11:06	807	JAPR03	23	3522	8	
090607	11:06	807	PR03 acre	24	8078	tree	
090607	11:06	807	JAPR13	25	6434	2	
090607	11:06	807	PR13 ambition	26	3656	ambition	
090607	11:06	807	JAPR04	27	4361	10	
090607	11:06	807	PR04 diaper	28	3895	diaper	
090607	11:06	807	JAUR53	1	2800	8	
090607	11:06	807	UR53 hell	2	2565	help	
090607	11:06	807	JAUR13	3	2921	10	
090607	11:06	807	UR13 almanac	4	10856	animal	
090607	11:06	807	JAHL07	5	4721	1	
090607	11:06	807	HL07 king	6	2859	dress	
090607	11:06	807	JALH05	7	4237	7	
090607	11:06	807	LH05 chain	8	2288	chair	
090607	11:06	807	JALH02	9	2747	10	
090607	11:06	807	LH02 harm	10	2036	harm	
090607	11:06	807	JAUR64	11	5281	8	
090607	11:06	807	UR64 fist	12	2086	first	
090607	11:06	807	JAUR32	13	5120	2	
090607	11:06	807	UR32 navigator	14	6698	navigator	
090607	11:06	807	JALH50	15	4848	6	
090607	11:06	807	LH50 measure	16	3244	measure	
090607	11:06	807	JALH27	17	3284	2	
090607	11:06	807	LH27 condition	18	2472	condition	
090607	11:06	807	JAHL17	19	4051	6	
090607	11:06	807	HL17 soap	20	2042	soap	
090607	11:06	807	JAUR74	21	3718	8	
090607	11:06	807	UR74 suitcase	22	3174	suitcase	
090607	11:06	807	JAHL36	23	3518	1	
090607	11:06	807	HL36 football	24	2485	football	
090607	11:06	807	JALH20	25	2730	9	
090607	11:06	807	LH20 violation	26	2955	violation	
090607	11:06	807	JALH54	27	2403	9	
090607	11:06	807	LH54 limit	28	2611	enter	
090607	11:06	807	JALH51	29	4473	7	
090607	11:06	807	LH51 exit	30	2000	exit	
090607	11:06	807	JAUR35	31	3318	10	
090607	11:06	807	UR35 cause	32	1940	cause	
090607	11:06	807	JALH19	33	3805	3	
090607	11:06	807	LH19 snob	34	1827	snob	
090607	11:06	807	JAHL51	35	2775	10	
090607	11:06	807	HL51 color	36	2287	color	
090607	11:06	807	JAHL47	37	2865	10	
090607	11:06	807	HL47 horse	38	3453	horse	
090607	11:06	807	JAUR45	39	3312	10	
090607	11:06	807	UR45 bridge	40	2977	carriage	
090607	11:06	807	JAUR69	41	2720	9	
090607	11:06	807	UR69 flashlight	42	3879	flashlight	
090607	11:06	807	JAUR76	43	3317	5	
090607	11:06	807	UR76 dignity	44	2863	dignity	
090607	11:06	807	JALH24	45	2308	10	
090607	11:06	807	LH24 feeling	46	2195	feeling	
090607	11:06	807	JAHL53	47	4694	6	
090607	11:06	807	HL53 fish	48	1784	fish	
090607	11:06	807	JAUR55	49	2110	10	
090607	11:06	807	UR55 bargain	50	2758	bargain	
090607	11:06	807	JAUR50	51	3207	10	
090607	11:06	807	UR50 crane	52	2272	crane	
090607	11:06	807	JAHL43	53	4370	7	
090607	11:06	807	HL43 money	54	1737	money	
090607	11:06	807	JALH11	55	3943	6	
090607	11:06	807	LH11 cancer	56	2108	cancer	
090607	11:06	807	JAUR77	57	7942	5	
090607	11:06	807	UR77 uncle	58	1755	uncle	
090607	11:06	807	JAUR27	59	2876	8	
090607	11:06	807	UR27 consequence	60	3643	consquence	
090607	11:06	807	JAUR68	61	2422	8	
090607	11:06	807	UR68 fatigue	62	3399	unique	
090607	11:06	807	JAUR22	63	4433	4	
090607	11:06	807	UR22 thesaurus	64	3857	treasure	
090607	11:06	807	JAUR07	65	4656	5	
090607	11:06	807	UR07 gathering	66	2782	gathering	
090607	11:06	807	JAUR95	67	2630	10	
090607	11:06	807	UR95 fool	68	1670	fool	
090607	11:06	807	JAUR63	69	2784	9	
090607	11:06	807	UR63 alley	70	1712	alley	
090607	11:06	807	JAUR06	71	3956	8	
090607	11:06	807	UR06 cello	72	1824	cell	
090607	11:06	807	JAHL34	73	5436	1	
090607	11:06	807	HL34 hunger	74	3577	hunger	
090607	11:06	807	JAUR66	75	3433	4	
090607	11:06	807	UR66 chief	76	2177	cheif	
090607	11:06	807	JAUR67	77	3535	1	
090607	11:06	807	UR67 producer	78	5454	produce	
090607	11:06	807	JAUR36	79	3489	2	
090607	11:06	807	UR36 denim	80	1714	denim	
090607	11:06	807	JAUR34	81	2833	9	
090607	11:06	807	UR34 charity	82	2045	charity	
090607	11:06	807	JALH14	83	5120	6	
090607	11:06	807	LH14 note	84	1699	note	
090607	11:06	807	JAHL50	85	4896	5	
090607	11:06	807	HL50 doctor	86	2020	doctor	
090607	11:06	807	JALH03	87	3789	5	
090607	11:06	807	LH03 yard	88	1642	yard	
090607	11:06	807	JALH22	89	3140	3	
090607	11:06	807	LH22 crowd	90	2978	crowd	
090607	11:06	807	JAUR46	91	2648	4	
090607	11:06	807	UR46 content	92	2121	content	
090607	11:06	807	JAUR75	93	4129	5	
090607	11:06	807	UR75 awe	94	1586	awe	
090607	11:06	807	JAUR78	95	4596	9	
090607	11:06	807	UR78 blender	96	2580	blender	
090607	11:06	807	JAHL39	97	5394	6	
090607	11:06	807	HL39 book	98	2890	blood	
090607	11:06	807	JAUR62	99	3193	3	
090607	11:06	807	UR62 chemistry	100	2515	chemistry	
090607	11:06	807	JALH04	101	2466	4	
090607	11:06	807	LH04 grade	102	2101	grade	
090607	11:06	807	JAHL03	103	8839	10	
090607	11:06	807	HL03 cigarette	104	3850	cigarette	
090607	11:06	807	JAUR20	105	2553	3	
090607	11:06	807	UR20 climax	106	3404	climax	
090607	11:06	807	JALH23	107	4578	6	
090607	11:06	807	LH23 possibility	108	3163	possibilty	
090607	11:06	807	JAHL09	109	1989	8	
090607	11:06	807	HL09 chalk	110	1677	chalk	
090607	11:06	807	JALH01	111	4419	9	
090607	11:06	807	LH01 brain	112	1835	brain	
090607	11:06	807	JAHL42	113	3267	5	
090607	11:06	807	HL42 pie	114	1495	pie	
090607	11:06	807	JALH43	115	4634	5	
090607	11:06	807	LH43 noise	116	2155	noise	
090607	11:06	807	JALH30	117	4580	7	
090607	11:06	807	LH30 assignment	118	2776	assignment	
090607	11:06	807	JALH53	119	2304	1	
090607	11:06	807	LH53 core	120	2405	score	
090607	11:06	807	JAUR47	121	2991	5	
090607	11:06	807	UR47 chimpanzee	122	4006	chimpanzee	
090607	11:06	807	JAUR42	123	3680	10	
090607	11:06	807	UR42 sergeant	124	4459	sergent	
090607	11:06	807	JAUR01	125	2059	8	
090607	11:06	807	UR01 file	126	1914	file	
090607	11:06	807	JAUR87	127	1862	8	
090607	11:06	807	UR87 duty	128	2835	duty	
090607	11:06	807	JAHL24	129	2227	1	
090607	11:06	807	HL24 eye	130	1505	eye	
090607	11:06	807	JAUR58	131	5997	4	
090607	11:06	807	UR58 answer	132	2004	answer	
090607	11:06	807	JAHL41	133	3911	3	
090607	11:06	807	HL41 hand	134	1697	hand	
090607	11:06	807	JAUR54	135	2890	4	
090607	11:06	807	UR54 steam	136	1660	steam	
090607	11:06	807	JAUR82	137	3559	8	
090607	11:06	807	UR82 campus	138	2154	campus	
090607	11:06	807	JAHL49	139	4338	5	
090607	11:06	807	HL49 spice	140	1841	spice	
090607	11:06	807	JAUR103	141	2180	8	
090607	11:06	807	UR103 hula	142	9191	laugh	
090607	11:06	807	JAUR70	143	2251	7	
090607	11:06	807	UR70 pajamas	144	5007	pajamas	
090607	11:06	807	JAHL23	145	2517	7	
090607	11:06	807	HL23 baby	146	1741	baby	
090607	11:06	807	JALH09	147	2609	3	
090607	11:06	807	LH09 piece	148	2066	piece	
090607	11:06	807	JAHL05	149	2698	4	
090607	11:06	807	HL05 mountain	150	3176	mountain	
090607	11:06	807	JAHL25	151	4147	4	
090607	11:06	807	HL25 cut	152	1525	cut	
090607	11:06	807	JAHL32	153	2371	1	
090607	11:06	807	HL32 television	154	3956	television	
090607	11:06	807	JALH38	155	2379	10	
090607	11:06	807	LH38 paint	156	1793	paint	
090607	11:06	807	JAUR52	157	6020	8	
090607	11:06	807	UR52 knight	158	3779	knight	
090607	11:06	807	JAPR28	159	2871	5	
090607	11:06	807	PR28 challenge	160	2536	challenge	
090607	11:06	807	JALH25	161	2387	8	
090607	11:06	807	LH25 track	162	1963	track	
090607	11:06	807	JAUR24	163	3423	9	
090607	11:06	807	UR24 kid	164	1416	kid	
090607	11:06	807	JAUR17	165	2447	10	
090607	11:06	807	UR17 trance	166	1808	chance	
090607	11:06	807	JAHL10	167	2074	4	
090607	11:06	807	HL10 cow	168	1302	cow	
090607	11:06	807	JAUR30	169	2400	8	
090607	11:06	807	UR30 lover	170	2685	lover	
090607	11:06	807	JAUR14	171	2160	10	
090607	11:06	807	UR14 fudge	172	2029	jail	
090607	11:06	807	JAUR60	173	1843	5	
090607	11:06	807	UR60 plaque	174	3235	plaque	
090607	11:06	807	JAHL21	175	2467	9	
090607	11:06	807	HL21 empire	176	1963	empire	
090607	11:06	807	JAHL45	177	2481	6	
090607	11:06	807	HL45 words	178	3359	word	
090607	11:06	807	JAUR107	179	3194	10	
090607	11:06	807	UR107 cocaine	180	29218	cob	
090607	11:06	807	JALH46	181	3202	1	
090607	11:06	807	LH46 submarine	182	4070	submarine	
090607	11:06	807	JAUR85	183	3149	3	
090607	11:06	807	UR85 stroke	184	1730	stroke	
090607	11:06	807	JAUR28	185	2329	10	
090607	11:06	807	UR28 bang	186	1619	bang	
090607	11:06	807	JAUR98	187	2491	4	
090607	11:06	807	UR98 latch	188	2849	hatch	
090607	11:06	807	JAUR105	189	3414	1	
090607	11:06	807	UR105 curtain	190	2694	curtain	
090607	11:06	807	JAUR65	191	1700	10	
090607	11:06	807	UR65 checkers	192	2415	crackers	
090607	11:06	807	JAUR106	193	1801	8	
090607	11:06	807	UR106 eagle	194	2829	eagle	
090607	11:06	807	JALH17	195	1953	10	
090607	11:06	807	LH17 life	196	1906	life	
090607	11:06	807	JAUR04	197	1743	8	
090607	11:06	807	UR04 marsh	198	1975	marsh	
090607	11:06	807	JAHL31	199	1900	10	
090607	11:06	807	HL31 war	200	1809	war	
090607	11:06	807	JALH07	201	1799	8	
090607	11:06	807	LH07 rear	202	1632	rear	
090607	11:06	807	JAHL33	203	2200	1	
090607	11:06	807	HL33 joke	204	2414	joke	
090607	11:06	807	JAHL01	205	4355	4	
090607	11:06	807	HL01 elephant	206	2572	elephant	
090607	11:06	807	JALH37	207	2193	4	
090607	11:06	807	LH37 pad	208	1603	pad	
090607	11:06	807	JAHL14	209	3116	7	
090607	11:06	807	HL14 milk	210	1870	milk	
090607	11:06	807	JAUR96	211	1635	8	
090607	11:06	807	UR96 dessert	212	2447	dessert	
090607	11:06	807	JALH32	213	1875	7	
090607	11:06	807	LH32 capacity	214	3342	capacity	
090607	11:06	807	JAUR59	215	2159	7	
090607	11:06	807	UR59 copper	216	4562	copy cat	
090607	11:06	807	JAUR21	217	1925	10	
090607	11:06	807	UR21 ore	218	5872	tree	
090607	11:06	807	JSPR26	1	11640	5	
090607	11:06	807	PR26 colonel	2	6452	smell	
090607	11:06	807	JSPR24	3	5982	7	
090607	11:06	807	PR24 pest	4	2029	pest	
090607	11:06	807	JSPR08	5	3678	10	
090607	11:06	807	PR08 beef	6	4577	beef	
090607	11:06	807	JSPR05	7	2021	10	
090607	11:06	807	PR05 calf	8	7539	count	
090607	11:06	807	JSPR14	9	1763	7	
090607	11:06	807	PR14 religion	10	2600	religion	
090607	11:06	807	JSPR19	11	2583	5	
090607	11:06	807	PR19 void	12	1578	coid	
090607	11:06	807	JSPR12	13	2852	8	
090607	11:06	807	PR12 royalty	14	4257	loyalty	
090607	11:06	807	JSPR02	15	1847	8	
090607	11:06	807	PR02 wrinkle	16	3492	wrinkle	
090607	11:06	807	JSPR10	17	3174	5	
090607	11:06	807	PR10 camel	18	1632	camel	
090607	11:06	807	JSPR15	19	2982	9	
090607	11:06	807	PR15 depletion	20	4335	lotion	
090607	11:06	807	JSPR20	21	1851	5	
090607	11:06	807	PR20 advertisement	22	4203	advertisement	
090607	11:06	807	JSPR29	23	1575	5	
090607	11:06	807	PR29 mermaid	24	1781	mermaid	
090607	11:06	807	JSPR16	25	6168	8	
090607	11:06	807	PR16 compulsion	26	3379	compulsion	
090607	11:06	807	JSPR22	27	2098	7	
090607	11:06	807	PR22 ass	28	4672	walk	
090607	11:06	807	JSPR18	29	3325	3	
090607	11:06	807	PR18 clorox	30	3747	clorox	
090607	11:06	807	JSUR33	1	2159	8	
090607	11:06	807	UR33 horror	2	2824	horror	
090607	11:06	807	JSUR41	3	2406	8	
090607	11:06	807	UR41 chime	4	1841	chime	
090607	11:06	807	JSLH06	5	1632	5	
090607	11:06	807	LH06 element	6	2043	element	
090607	11:06	807	JSHL40	7	2357	10	
090607	11:06	807	HL40 temperature	8	3476	temperature	
090607	11:06	807	JSLH10	9	1694	8	
090607	11:06	807	LH10 care	10	1385	care	
090607	11:06	807	JSHL16	11	1791	9	
090607	11:06	807	HL16 broom	12	3544	broom	
090607	11:06	807	JSLH42	13	1540	7	
090607	11:06	807	LH42 thought	14	1769	thought	
090607	11:06	807	JSLH44	15	1499	7	
090607	11:06	807	LH44 vessel	16	2279	vessel	
090607	11:06	807	JSLH41	17	5347	10	
090607	11:06	807	LH41 girl	18	1944	girl	
090607	11:06	807	JSHL08	19	4584	6	
090607	11:06	807	HL08 math	20	1813	math	
090607	11:06	807	JSHL30	21	2642	3	
090607	11:06	807	HL30 air	22	1443	air	
090607	11:06	807	JSLH34	23	2787	10	
090607	11:06	807	LH34 panel	24	1514	panel	
090607	11:06	807	JSHL37	25	2774	4	
090607	11:06	807	HL37 thread	26	1765	thread	
090607	11:06	807	JSUR23	27	2408	7	
090607	11:06	807	UR23 abundance	28	8956	attention	
090607	11:06	807	JSUR94	29	2261	5	
090607	11:06	807	UR94 bristle	30	1910	bristle	
090607	11:06	807	JSLH29	31	3574	4	
090607	11:06	807	LH29 closet	32	2049	closest	
090607	11:06	807	JSUR97	33	4847	7	
090607	11:06	807	UR97 banner	34	2807	banner	
090607	11:06	807	JSUR73	35	1688	8	
090607	11:06	807	UR73 kite	36	3931	knife	
090607	11:06	807	JSHL15	37	4018	10	
090607	11:06	807	HL15 bomb	38	1866	bomb	
090607	11:06	807	JSUR05	39	2532	3	
090607	11:06	807	UR05 lease	40	1762	leash	
090607	11:06	807	JSLH40	41	1850	8	
090607	11:06	807	LH40 field	42	4691	friend	
090607	11:06	807	JSUR09	43	4048	6	
090607	11:06	807	UR09 education	44	9894	editorial	
090607	11:06	807	JSHL18	45	2570	9	
090607	11:06	807	HL18 paper	46	1745	paper	
090607	11:06	807	JSUR61	47	3072	2	
090607	11:06	807	UR61 suicide	48	2918	suicide	
090607	11:06	807	JSLH18	49	1605	7	
090607	11:06	807	LH18 edge	50	3517	ledge	
090607	11:06	807	JSHL04	51	1331	7	
090607	11:06	807	HL04 beer	52	1484	beer	
090607	11:06	807	JSUR19	53	3357	4	
090607	11:06	807	UR19 bison	54	3452	bison	
090607	11:06	807	JSLH12	55	1838	4	
090607	11:06	807	LH12 addition	56	2157	addition	
090607	11:06	807	JSHL02	57	3965	9	
090607	11:06	807	HL02 flower	58	2370	flower	
090607	11:06	807	JSLH36	59	2886	4	
090607	11:06	807	LH36 gang	60	1778	gang	
090607	11:06	807	JSLH48	61	1660	8	
090607	11:06	807	LH48 outcome	62	3885	outcome	
090607	11:06	807	JSLH15	63	3030	10	
090607	11:06	807	LH15 blessing	64	2627	blessing	
090607	11:06	807	JSHL35	65	4117	5	
090607	11:06	807	HL35 cake	66	1759	cake	
090607	11:06	807	JSUR40	67	2492	8	
090607	11:06	807	UR40 dancer	68	2778	dancer	
090607	11:06	807	JSUR88	69	3023	5	
090607	11:06	807	UR88 circus	70	3001	circus	
090607	11:06	807	JSUR81	71	1494	8	
090607	11:06	807	UR81 acid	72	3493	acid	
090607	11:06	807	JSUR92	73	3269	8	
090607	11:06	807	UR92 dart	74	2650	dare	
090607	11:06	807	JSHL44	75	1507	5	
090607	11:06	807	HL44 baseball	76	3892	baseball	
090607	11:06	807	JSHL46	77	3107	3	
090607	11:06	807	HL46 butter	78	3468	butter	
090607	11:06	807	JSUR15	79	2173	8	
090607	11:06	807	UR15 compass	80	3107	compass	
090607	11:06	807	JSLH35	81	1476	7	
090607	11:06	807	LH35 shelter	82	2067	shelter	
090607	11:06	807	JSUR91	83	9460	4	
090607	11:06	807	UR91 anteater	84	5428	antelers	
090607	11:06	807	JSLH08	85	1746	10	
090607	11:06	807	LH08 house	86	1514	house	
090607	11:06	807	JSLH21	87	3263	5	
090607	11:06	807	LH21 monument	88	2505	monument	
090607	11:06	807	JSUR83	89	1339	5	
090607	11:06	807	UR83 lesson	90	1727	lesson	
090607	11:06	807	JSHL22	91	2273	6	
090607	11:06	807	HL22 problem	92	2243	problem	
090607	11:06	807	JSLH47	93	6602	4	
090607	11:06	807	LH47 detergent	94	3319	detergent	
090607	11:06	807	JSUR56	95	2906	2	
090607	11:06	807	UR56 antler	96	3185	enter	
090607	11:06	807	JSUR80	97	3181	10	
090607	11:06	807	UR80 antique	98	3157	clinic	
090607	11:06	807	JSUR11	99	3229	3	
090607	11:06	807	UR11 foundation	100	5315	foundation	
090607	11:06	807	JSHL11	101	2856	4	
090607	11:06	807	HL11 rock	102	1502	rock	
090607	11:06	807	JSLH16	103	2020	7	
090607	11:06	807	LH16 power	104	1749	power	
090607	11:06	807	JSUR18	105	4572	8	
090607	11:06	807	UR18 relief	106	1913	relief	
090607	11:06	807	JSLH39	107	2117	2	
090607	11:06	807	LH39 reward	108	2669	reward	
090607	11:06	807	JSUR79	109	3456	3	
090607	11:06	807	UR79 beetle	110	9383	vegetables	
090607	11:06	807	JSUR102	111	3589	4	
090607	11:06	807	UR102 velocity	112	2619	velocity	
090607	11:06	807	JSUR101	113	5080	2	
090607	11:06	807	UR101 beard	114	2061	beard	
090607	11:06	807	JSUR72	115	5324	4	
090607	11:06	807	UR72 band	116	1809	band	
090607	11:06	807	JSUR51	117	2243	4	
090607	11:06	807	UR51 cabbage	118	2088	cabbage	
090607	11:06	807	JSHL54	119	4691	4	
090607	11:06	807	HL54 indian	120	2756	indian	
090607	11:06	807	JSUR39	121	1930	10	
090607	11:06	807	UR39 faith	122	6326	fashion	
090607	11:06	807	JSUR49	123	2213	7	
090607	11:06	807	UR49 casket	124	1860	casket	
090607	11:06	807	JSLH49	125	2495	5	
090607	11:06	807	LH49 kindness	126	2214	kindness	
090607	11:06	807	JSUR10	127	3132	2	
090607	11:06	807	UR10 tribe	128	1846	tribe	
090607	11:06	807	JSHL06	129	3040	1	
090607	11:06	807	HL06 egg	130	1778	egg	
090607	11:06	807	JSUR71	131	1951	3	
090607	11:06	807	UR71 padding	132	2192	padding	
090607	11:06	807	JSUR25	133	1942	8	
090607	11:06	807	UR25 partner	134	2517	partner	
090607	11:06	807	JSUR03	135	2285	2	
090607	11:06	807	UR03 vehicle	136	2651	vehicle	
090607	11:06	807	JSHL28	137	2566	1	
090607	11:06	807	HL28 bird	138	1636	bird	
090607	11:06	807	JSUR100	139	1738	8	
090607	11:06	807	UR100 comb	140	1694	comb	
090607	11:06	807	JSUR89	141	2522	4	
090607	11:06	807	UR89 crow	142	1782	crow	
090607	11:06	807	JSUR29	143	5689	2	
090607	11:06	807	UR29 patrol	144	1862	patrol	
090607	11:06	807	JSHL38	145	7297	2	
090607	11:06	807	HL38 boat	146	2398	boat	
090607	11:06	807	JSLH33	147	5966	5	
090607	11:06	807	LH33 fable	148	1956	fable	
090607	11:06	807	JSUR31	149	3814	4	
090607	11:06	807	UR31 diameter	150	2161	diameter	
090607	11:06	807	JSHL19	151	4798	2	
090607	11:06	807	HL19 car	152	1638	car	
090607	11:06	807	JSLH31	153	3270	1	
090607	11:06	807	LH31 self	154	1589	self	
090607	11:06	807	JSLH13	155	3637	8	
090607	11:06	807	LH13 crease	156	3314	dress	
090607	11:06	807	JSUR37	157	2546	2	
090607	11:06	807	UR37 cloth	158	1525	cloth	
090607	11:06	807	JSHL27	159	6197	5	
090607	11:06	807	HL27 rain	160	3630	rain	
090607	11:06	807	JSUR104	161	3833	10	
090607	11:06	807	UR104 aardvark	162	7880	adavark	
090607	11:06	807	JSUR38	163	2451	4	
090607	11:06	807	UR38 energy	164	2357	energy	
090607	11:06	807	JSUR90	165	2400	7	
090607	11:06	807	UR90 sailing	166	3486	sailing	
090607	11:06	807	JSUR57	167	2082	9	
090607	11:06	807	UR57 benefit	168	4117	benefit	
090607	11:06	807	JSUR86	169	1967	7	
090607	11:06	807	UR86 boulevard	170	5263	boulder	
090607	11:06	807	JSLH45	171	1514	8	
090607	11:06	807	LH45 intellect	172	8636	intellict	
090607	11:06	807	JSLH26	173	1838	5	
090607	11:06	807	LH26 center	174	3950	center	
090607	11:06	807	JSUR12	175	3207	5	
090607	11:06	807	UR12 unicorn	176	2295	unicorn	
090607	11:06	807	JSUR108	177	3080	9	
090607	11:06	807	UR108 shield	178	2170	shield	
090607	11:06	807	JSUR99	179	3583	5	
090607	11:06	807	UR99 branch	180	1851	branch	
090607	11:06	807	JSHL29	181	2526	10	
090607	11:06	807	HL29 ring	182	2672	ring	
090607	11:06	807	JSHL26	183	3517	7	
090607	11:06	807	HL26 light	184	1805	light	
090607	11:06	807	JSLH28	185	5046	4	
090607	11:06	807	LH28 vagrant	186	2230	vagant	
090607	11:06	807	JSHL52	187	2919	4	
090607	11:06	807	HL52 sand	188	1578	sand	
090607	11:06	807	JSHL48	189	3418	5	
090607	11:06	807	HL48 airplane	190	2365	airplane	
090607	11:06	807	JSUR43	191	1686	5	
090607	11:06	807	UR43 balloon	192	3951	balloon	
090607	11:06	807	JSUR93	193	1814	4	
090607	11:06	807	UR93 catcher	194	5584	canter	
090607	11:06	807	JSHL20	195	1999	5	
090607	11:06	807	HL20 wine	196	1431	wine	
090607	11:06	807	JSHL13	197	2946	7	
090607	11:06	807	HL13 map	198	1328	map	
090607	11:06	807	JSHL12	199	4254	10	
090607	11:06	807	HL12 space	200	1982	space	
090607	11:06	807	JSUR02	201	2126	10	
090607	11:06	807	UR02 comma	202	2229	space	
090607	11:06	807	JSUR48	203	2678	5	
090607	11:06	807	UR48 democracy	204	3312	democracy	
090607	11:06	807	JSUR08	205	3928	7	
090607	11:06	807	UR08 assistant	206	3905	assist	
090607	11:06	807	JSUR84	207	1462	5	
090607	11:06	807	UR84 flag	208	2285	flag	
090607	11:06	807	JSUR26	209	2189	7	
090607	11:06	807	UR26 eternity	210	5592	eternity	
090607	11:06	807	JSLH52	211	2725	5	
090607	11:06	807	LH52 bureau	212	2745	bureau	
090607	11:06	807	JSUR44	213	2526	8	
090607	11:06	807	UR44 rot	214	3104	stone	
090607	11:06	807	JSUR16	215	3594	7	
090607	11:06	807	UR16 century	216	6953	century	
date	time	subject	trialcode	trialnum	latency	response	
090607	11:53	809	JAPR17	1	18020	3	
090607	11:53	809	PR17 emerald	2	25928	tree	
090607	11:53	809	JAPR27	3	10671	9	
090607	11:53	809	PR27 wheat	4	8732	nothing	
090607	11:53	809	JAPR07	5	9256	6	
090607	11:53	809	PR07 bog	6	18740	hay	
090607	11:53	809	JAPR23	7	7051	3	
090607	11:53	809	PR23 companion	8	6046	company	
090607	11:53	809	JAPR06	9	6494	9	
090607	11:53	809	PR06 beast	10	6436	rush	
090607	11:53	809	JAPR09	11	5605	2	
090607	11:53	809	PR09 album	12	7086	palm	
090607	11:53	809	JAPR21	13	4724	1	
090607	11:53	809	PR21 innocence	14	4529	control	
090607	11:53	809	JAPR01	15	6460	2	
090607	11:53	809	PR01 cash	16	6476	enter	
090607	11:53	809	JAPR11	17	17373	1	
090607	11:53	809	PR11 ounce	18	12119	know	
090607	11:53	809	JAPR25	19	21600	9	
090607	11:53	809	PR25 saliva	20	7994	saver	
090607	11:53	809	JAPR30	21	3827	2	
090607	11:53	809	PR30 maiden	22	3129	maiden	
090607	11:53	809	JAPR03	23	7343	3	
090607	11:53	809	PR03 acre	24	4151	acre	
090607	11:53	809	JAPR13	25	4324	1	
090607	11:53	809	PR13 ambition	26	4492	ambition	
090607	11:53	809	JAPR04	27	10350	5	
090607	11:53	809	PR04 diaper	28	5053	diaper	
090607	11:53	809	JAUR53	1	13435	3	
090607	11:53	809	UR53 hell	2	3740	hell	
090607	11:53	809	JAUR13	3	5327	3	
090607	11:53	809	UR13 almanac	4	5941	almanac	
090607	11:53	809	JAHL07	5	11299	3	
090607	11:53	809	HL07 king	6	4011	king	
090607	11:53	809	JALH05	7	18922	1	
090607	11:53	809	LH05 chain	8	5281	chain	
090607	11:53	809	JALH02	9	19565	3	
090607	11:53	809	LH02 harm	10	3318	harm	
090607	11:53	809	JAUR64	11	9242	1	
090607	11:53	809	UR64 fist	12	2828	first	
090607	11:53	809	JAUR32	13	75155	9	
090607	11:53	809	UR32 navigator	14	4415	navigator	
090607	11:53	809	JALH50	15	6878	4	
090607	11:53	809	LH50 measure	16	3721	measure	
090607	11:53	809	JALH27	17	16268	1	
090607	11:53	809	LH27 condition	18	3899	condition	
090607	11:53	809	JAHL17	19	5957	2	
090607	11:53	809	HL17 soap	20	2687	soap	
090607	11:53	809	JAUR74	21	9988	3	
090607	11:53	809	UR74 suitcase	22	5012	master	
090607	11:53	809	JAHL36	23	59769	1	
090607	11:53	809	HL36 football	24	4203	football	
090607	11:53	809	JALH20	25	9216	5	
090607	11:53	809	LH20 violation	26	3133	violation	
090607	11:53	809	JALH54	27	8002	6	
090607	11:53	809	LH54 limit	28	4193	listen	
090607	11:53	809	JALH51	29	7293	6	
090607	11:53	809	LH51 exit	30	5535	control	
090607	11:53	809	JAUR35	31	8215	4	
090607	11:53	809	UR35 cause	32	4808	couch	
090607	11:53	809	JALH19	33	7244	7	
090607	11:53	809	LH19 snob	34	3584	snob	
090607	11:53	809	JAHL51	35	9591	5	
090607	11:53	809	HL51 color	36	2017	color	
090607	11:53	809	JAHL47	37	5669	8	
090607	11:53	809	HL47 horse	38	3486	horse	
090607	11:53	809	JAUR45	39	5660	9	
090607	11:53	809	UR45 bridge	40	2849	bride	
090607	11:53	809	JAUR69	41	5888	5	
090607	11:53	809	UR69 flashlight	42	4800	flashlight	
090607	11:53	809	JAUR76	43	8604	3	
090607	11:53	809	UR76 dignity	44	6409	digits	
090607	11:53	809	JALH24	45	20829	4	
090607	11:53	809	LH24 feeling	46	2585	feeling	
090607	11:53	809	JAHL53	47	6179	6	
090607	11:53	809	HL53 fish	48	1768	fish	
090607	11:53	809	JAUR55	49	7556	5	
090607	11:53	809	UR55 bargain	50	2699	bargain	
090607	11:53	809	JAUR50	51	11638	3	
090607	11:53	809	UR50 crane	52	3195	crane	
090607	11:53	809	JAHL43	53	8445	6	
090607	11:53	809	HL43 money	54	2403	money	
090607	11:53	809	JALH11	55	26069	1	
090607	11:53	809	LH11 cancer	56	3705	crabby	
090607	11:53	809	JAUR77	57	3735	3	
090607	11:53	809	UR77 uncle	58	2482	uncle	
090607	11:53	809	JAUR27	59	6963	5	
090607	11:53	809	UR27 consequence	60	6572	consequence	
090607	11:53	809	JAUR68	61	7704	5	
090607	11:53	809	UR68 fatigue	62	3486	fatigue	
090607	11:53	809	JAUR22	63	7312	7	
090607	11:53	809	UR22 thesaurus	64	5691	treasure	
090607	11:53	809	JAUR07	65	8584	6	
090607	11:53	809	UR07 gathering	66	3455	gathering	
090607	11:53	809	JAUR95	67	19090	4	
090607	11:53	809	UR95 fool	68	4375	control	
090607	11:53	809	JAUR63	69	10474	6	
090607	11:53	809	UR63 alley	70	3868	allergy	
090607	11:53	809	JAUR06	71	6544	3	
090607	11:53	809	UR06 cello	72	5350	cold	
090607	11:53	809	JAHL34	73	4323	4	
090607	11:53	809	HL34 hunger	74	7420	famine	
090607	11:53	809	JAUR66	75	7054	5	
090607	11:53	809	UR66 chief	76	15911	canopy	
090607	11:53	809	JAUR67	77	9905	3	
090607	11:53	809	UR67 producer	78	4011	producer	
090607	11:53	809	JAUR36	79	12553	2	
090607	11:53	809	UR36 denim	80	8539	disarm	
090607	11:53	809	JAUR34	81	6823	5	
090607	11:53	809	UR34 charity	82	3543	charity	
090607	11:53	809	JALH14	83	23945	2	
090607	11:53	809	LH14 note	84	5250	bomb	
090607	11:53	809	JAHL50	85	6452	4	
090607	11:53	809	HL50 doctor	86	12046	dentist	
090607	11:53	809	JALH03	87	6104	4	
090607	11:53	809	LH03 yard	88	2848	yard	
090607	11:53	809	JALH22	89	4756	1	
090607	11:53	809	LH22 crowd	90	3017	crowd	
090607	11:53	809	JAUR46	91	4881	5	
090607	11:53	809	UR46 content	92	4935	consent	
090607	11:53	809	JAUR75	93	4950	2	
090607	11:53	809	UR75 awe	94	9959	axis	
090607	11:53	809	JAUR78	95	7579	4	
090607	11:53	809	UR78 blender	96	3511	blender	
090607	11:53	809	JAHL39	97	11840	2	
090607	11:53	809	HL39 book	98	3877	below	
090607	11:53	809	JAUR62	99	6216	4	
090607	11:53	809	UR62 chemistry	100	3526	chemistry	
090607	11:53	809	JALH04	101	28211	6	
090607	11:53	809	LH04 grade	102	2846	grade	
090607	11:53	809	JAHL03	103	5521	6	
090607	11:53	809	HL03 cigarette	104	3522	cigarette	
090607	11:53	809	JAUR20	105	6261	4	
090607	11:53	809	UR20 climax	106	2968	climate	
090607	11:53	809	JALH23	107	8164	5	
090607	11:53	809	LH23 possibility	108	8433	possibility	
090607	11:53	809	JAHL09	109	4988	4	
090607	11:53	809	HL09 chalk	110	3123	chalk	
090607	11:53	809	JALH01	111	8152	4	
090607	11:53	809	LH01 brain	112	2995	brain	
090607	11:53	809	JAHL42	113	34760	7	
090607	11:53	809	HL42 pie	114	1786	pie	
090607	11:53	809	JALH43	115	8573	5	
090607	11:53	809	LH43 noise	116	2520	noise	
090607	11:53	809	JALH30	117	9553	4	
090607	11:53	809	LH30 assignment	118	4186	assignment	
090607	11:53	809	JALH53	119	51631	3	
090607	11:53	809	LH53 core	120	2861	core	
090607	11:53	809	JAUR47	121	8893	5	
090607	11:53	809	UR47 chimpanzee	122	3900	chimney	
090607	11:53	809	JAUR42	123	7030	5	
090607	11:53	809	UR42 sergeant	124	4684	sevant	
090607	11:53	809	JAUR01	125	9472	9	
090607	11:53	809	UR01 file	126	3263	toes	
090607	11:53	809	JAUR87	127	4967	7	
090607	11:53	809	UR87 duty	128	2079	duty	
090607	11:53	809	JAHL24	129	7330	6	
090607	11:53	809	HL24 eye	130	9742	pig	
090607	11:53	809	JAUR58	131	8052	4	
090607	11:53	809	UR58 answer	132	3812	answer	
090607	11:53	809	JAHL41	133	10718	5	
090607	11:53	809	HL41 hand	134	3623	winter	
090607	11:53	809	JAUR54	135	7379	7	
090607	11:53	809	UR54 steam	136	3744	scream	
090607	11:53	809	JAUR82	137	15824	8	
090607	11:53	809	UR82 campus	138	4720	campaign	
090607	11:53	809	JAHL49	139	7802	6	
090607	11:53	809	HL49 spice	140	2064	spice	
090607	11:53	809	JAUR103	141	7622	6	
090607	11:53	809	UR103 hula	142	2599	humor	
090607	11:53	809	JAUR70	143	66421	4	
090607	11:53	809	UR70 pajamas	144	3151	pajamas	
090607	11:53	809	JAHL23	145	4971	4	
090607	11:53	809	HL23 baby	146	2070	baby	
090607	11:53	809	JALH09	147	5375	3	
090607	11:53	809	LH09 piece	148	3464	piece	
090607	11:53	809	JAHL05	149	5225	3	
090607	11:53	809	HL05 mountain	150	2835	mountain	
090607	11:53	809	JAHL25	151	5404	3	
090607	11:53	809	HL25 cut	152	2406	cut	
090607	11:53	809	JAHL32	153	6912	1	
090607	11:53	809	HL32 television	154	6289	television	
090607	11:53	809	JALH38	155	6155	4	
090607	11:53	809	LH38 paint	156	5688	copper	
090607	11:53	809	JAUR52	157	66729	6	
090607	11:53	809	UR52 knight	158	2771	knight	
090607	11:53	809	JAPR28	159	2894	4	
090607	11:53	809	PR28 challenge	160	5373	challenge	
090607	11:53	809	JALH25	161	4098	7	
090607	11:53	809	LH25 track	162	3829	type	
090607	11:53	809	JAUR24	163	8335	4	
090607	11:53	809	UR24 kid	164	3127	kid	
090607	11:53	809	JAUR17	165	5547	6	
090607	11:53	809	UR17 trance	166	3598	trance	
090607	11:53	809	JAHL10	167	3966	6	
090607	11:53	809	HL10 cow	168	1395	cow	
090607	11:53	809	JAUR30	169	4882	4	
090607	11:53	809	UR30 lover	170	1666	lover	
090607	11:53	809	JAUR14	171	5435	5	
090607	11:53	809	UR14 fudge	172	4452	study	
090607	11:53	809	JAUR60	173	5710	4	
090607	11:53	809	UR60 plaque	174	3048	plague	
090607	11:53	809	JAHL21	175	4320	8	
090607	11:53	809	HL21 empire	176	3714	empire	
090607	11:53	809	JAHL45	177	7461	8	
090607	11:53	809	HL45 words	178	2254	words	
090607	11:53	809	JAUR107	179	6651	6	
090607	11:53	809	UR107 cocaine	180	9051	candy	
090607	11:53	809	JALH46	181	4413	1	
090607	11:53	809	LH46 submarine	182	3638	submarine	
090607	11:53	809	JAUR85	183	4802	4	
090607	11:53	809	UR85 stroke	184	2783	steak	
090607	11:53	809	JAUR28	185	4340	4	
090607	11:53	809	UR28 bang	186	3418	bandage	
090607	11:53	809	JAUR98	187	4798	3	
090607	11:53	809	UR98 latch	188	2100	latch	
090607	11:53	809	JAUR105	189	3489	1	
090607	11:53	809	UR105 curtain	190	2215	curtain	
090607	11:53	809	JAUR65	191	4942	9	
090607	11:53	809	UR65 checkers	192	8058	cheese	
090607	11:53	809	JAUR106	193	4460	8	
090607	11:53	809	UR106 eagle	194	1997	eagle	
090607	11:53	809	JALH17	195	5367	7	
090607	11:53	809	LH17 life	196	2647	life	
090607	11:53	809	JAUR04	197	4136	8	
090607	11:53	809	UR04 marsh	198	6041	camera	
090607	11:53	809	JAHL31	199	3797	6	
090607	11:53	809	HL31 war	200	1515	war	
090607	11:53	809	JALH07	201	8875	4	
090607	11:53	809	LH07 rear	202	5790	rather	
090607	11:53	809	JAHL33	203	3477	4	
090607	11:53	809	HL33 joke	204	1819	joke	
090607	11:53	809	JAHL01	205	6254	2	
090607	11:53	809	HL01 elephant	206	3549	elephant	
090607	11:53	809	JALH37	207	2933	1	
090607	11:53	809	LH37 pad	208	2237	pad	
090607	11:53	809	JAHL14	209	4283	4	
090607	11:53	809	HL14 milk	210	2475	milk	
090607	11:53	809	JAUR96	211	4462	5	
090607	11:53	809	UR96 dessert	212	3088	dessert	
090607	11:53	809	JALH32	213	3531	5	
090607	11:53	809	LH32 capacity	214	3981	capable	
090607	11:53	809	JAUR59	215	5457	4	
090607	11:53	809	UR59 copper	216	2962	copper	
090607	11:53	809	JAUR21	217	5753	6	
090607	11:53	809	UR21 ore	218	2489	store	
090607	11:53	809	JSPR26	1	17103	3	
090607	11:53	809	PR26 colonel	2	5334	neck	
090607	11:53	809	JSPR24	3	10590	5	
090607	11:53	809	PR24 pest	4	2698	pretty	
090607	11:53	809	JSPR08	5	11347	4	
090607	11:53	809	PR08 beef	6	5362	bee	
090607	11:53	809	JSPR05	7	20303	3	
090607	11:53	809	PR05 calf	8	4992	calf	
090607	11:53	809	JSPR14	9	4629	6	
090607	11:53	809	PR14 religion	10	2623	religion	
090607	11:53	809	JSPR19	11	5428	7	
090607	11:53	809	PR19 void	12	1819	void	
090607	11:53	809	JSPR12	13	29872	8	
090607	11:53	809	PR12 royalty	14	3061	saw	
090607	11:53	809	JSPR02	15	5679	3	
090607	11:53	809	PR02 wrinkle	16	5251	wrinkle	
090607	11:53	809	JSPR10	17	3742	1	
090607	11:53	809	PR10 camel	18	4848	beef	
090607	11:53	809	JSPR15	19	10267	3	
090607	11:53	809	PR15 depletion	20	3434	deeper	
090607	11:53	809	JSPR20	21	4253	3	
090607	11:53	809	PR20 advertisement	22	3930	control	
090607	11:53	809	JSPR29	23	25810	10	
090607	11:53	809	PR29 mermaid	24	3762	mermaid	
090607	11:53	809	JSPR16	25	9416	4	
090607	11:53	809	PR16 compulsion	26	6508	compulsion	
090607	11:53	809	JSPR22	27	4674	6	
090607	11:53	809	PR22 ass	28	4434	asphalt	
090607	11:53	809	JSPR18	29	59906	2	
090607	11:53	809	PR18 clorox	30	5649	color	
090607	11:53	809	JSUR33	1	16138	1	
090607	11:53	809	UR33 horror	2	2717	horror	
090607	11:53	809	JSUR41	3	7642	9	
090607	11:53	809	UR41 chime	4	3442	chime	
090607	11:53	809	JSLH06	5	8827	7	
090607	11:53	809	LH06 element	6	3378	element	
090607	11:53	809	JSHL40	7	6808	3	
090607	11:53	809	HL40 temperature	8	4459	temperature	
090607	11:53	809	JSLH10	9	5426	2	
090607	11:53	809	LH10 care	10	3629	doctor	
090607	11:53	809	JSHL16	11	10139	1	
090607	11:53	809	HL16 broom	12	2853	broom	
090607	11:53	809	JSLH42	13	5568	5	
090607	11:53	809	LH42 thought	14	2406	thought	
090607	11:53	809	JSLH44	15	8707	6	
090607	11:53	809	LH44 vessel	16	2221	vessel	
090607	11:53	809	JSLH41	17	5012	5	
090607	11:53	809	LH41 girl	18	3826	girl	
090607	11:53	809	JSHL08	19	6521	4	
090607	11:53	809	HL08 math	20	3605	math	
090607	11:53	809	JSHL30	21	11719	3	
090607	11:53	809	HL30 air	22	5510	assist	
090607	11:53	809	JSLH34	23	4537	3	
090607	11:53	809	LH34 panel	24	3834	panel	
090607	11:53	809	JSHL37	25	64080	5	
090607	11:53	809	HL37 thread	26	2937	thread	
090607	11:53	809	JSUR23	27	4802	5	
090607	11:53	809	UR23 abundance	28	4098	absent	
090607	11:53	809	JSUR94	29	3600	7	
090607	11:53	809	UR94 bristle	30	4313	belief	
090607	11:53	809	JSLH29	31	4855	2	
090607	11:53	809	LH29 closet	32	2123	closet	
090607	11:53	809	JSUR97	33	11319	5	
090607	11:53	809	UR97 banner	34	2169	banner	
090607	11:53	809	JSUR73	35	45321	10	
090607	11:53	809	UR73 kite	36	2626	kite	
090607	11:53	809	JSHL15	37	4542	8	
090607	11:53	809	HL15 bomb	38	2685	bomb	
090607	11:53	809	JSUR05	39	35347	8	
090607	11:53	809	UR05 lease	40	2056	lease	
090607	11:53	809	JSLH40	41	3818	4	
090607	11:53	809	LH40 field	42	2105	field	
090607	11:53	809	JSUR09	43	5074	6	
090607	11:53	809	UR09 education	44	4036	education	
090607	11:53	809	JSHL18	45	4343	4	
090607	11:53	809	HL18 paper	46	1791	paper	
090607	11:53	809	JSUR61	47	7023	3	
090607	11:53	809	UR61 suicide	48	3258	suicide	
090607	11:53	809	JSLH18	49	27312	5	
090607	11:53	809	LH18 edge	50	2915	ledge	
090607	11:53	809	JSHL04	51	5737	7	
090607	11:53	809	HL04 beer	52	2579	beer	
090607	11:53	809	JSUR19	53	4901	3	
090607	11:53	809	UR19 bison	54	3510	bison	
090607	11:53	809	JSLH12	55	16752	5	
090607	11:53	809	LH12 addition	56	7497	electricity	
090607	11:53	809	JSHL02	57	5098	2	
090607	11:53	809	HL02 flower	58	3065	color	
090607	11:53	809	JSLH36	59	4550	3	
090607	11:53	809	LH36 gang	60	1419	gang	
090607	11:53	809	JSLH48	61	7997	4	
090607	11:53	809	LH48 outcome	62	3473	outcome	
090607	11:53	809	JSLH15	63	9659	10	
090607	11:53	809	LH15 blessing	64	3508	blessing	
090607	11:53	809	JSHL35	65	4191	5	
090607	11:53	809	HL35 cake	66	1486	cake	
090607	11:53	809	JSUR40	67	13315	5	
090607	11:53	809	UR40 dancer	68	2311	dancer	
090607	11:53	809	JSUR88	69	43868	2	
090607	11:53	809	UR88 circus	70	2818	circus	
090607	11:53	809	JSUR81	71	4417	3	
090607	11:53	809	UR81 acid	72	1564	acid	
090607	11:53	809	JSUR92	73	6374	3	
090607	11:53	809	UR92 dart	74	1652	dart	
090607	11:53	809	JSHL44	75	5394	10	
090607	11:53	809	HL44 baseball	76	2528	baseball	
090607	11:53	809	JSHL46	77	4420	3	
090607	11:53	809	HL46 butter	78	1487	butter	
090607	11:53	809	JSUR15	79	4900	8	
090607	11:53	809	UR15 compass	80	2592	compass	
090607	11:53	809	JSLH35	81	4872	5	
090607	11:53	809	LH35 shelter	82	4908	tent	
090607	11:53	809	JSUR91	83	6914	5	
090607	11:53	809	UR91 anteater	84	6754	anthole	
090607	11:53	809	JSLH08	85	40845	9	
090607	11:53	809	LH08 house	86	3125	house	
090607	11:53	809	JSLH21	87	5636	10	
090607	11:53	809	LH21 monument	88	2558	moment	
090607	11:53	809	JSUR83	89	5992	5	
090607	11:53	809	UR83 lesson	90	1657	lesson	
090607	11:53	809	JSHL22	91	4119	5	
090607	11:53	809	HL22 problem	92	2949	problem	
090607	11:53	809	JSLH47	93	5438	10	
090607	11:53	809	LH47 detergent	94	3403	detergent	
090607	11:53	809	JSUR56	95	5696	8	
090607	11:53	809	UR56 antler	96	3029	antler	
090607	11:53	809	JSUR80	97	3613	7	
090607	11:53	809	UR80 antique	98	2970	antique	
090607	11:53	809	JSUR11	99	5204	9	
090607	11:53	809	UR11 foundation	100	3459	foundation	
090607	11:53	809	JSHL11	101	5561	9	
090607	11:53	809	HL11 rock	102	1511	rock	
090607	11:53	809	JSLH16	103	6947	6	
090607	11:53	809	LH16 power	104	1941	power	
090607	11:53	809	JSUR18	105	4834	6	
090607	11:53	809	UR18 relief	106	2261	relief	
090607	11:53	809	JSLH39	107	5003	1	
090607	11:53	809	LH39 reward	108	2749	reward	
090607	11:53	809	JSUR79	109	6141	8	
090607	11:53	809	UR79 beetle	110	2557	beetle	
090607	11:53	809	JSUR102	111	7185	10	
090607	11:53	809	UR102 velocity	112	4025	victory	
090607	11:53	809	JSUR101	113	15374	6	
090607	11:53	809	UR101 beard	114	1956	beard	
090607	11:53	809	JSUR72	115	32793	8	
090607	11:53	809	UR72 band	116	1619	band	
090607	11:53	809	JSUR51	117	3147	8	
090607	11:53	809	UR51 cabbage	118	2606	cabbage	
090607	11:53	809	JSHL54	119	3056	8	
090607	11:53	809	HL54 indian	120	3302	ship	
090607	11:53	809	JSUR39	121	5150	9	
090607	11:53	809	UR39 faith	122	2855	finish	
090607	11:53	809	JSUR49	123	2449	8	
090607	11:53	809	UR49 casket	124	4665	cash	
090607	11:53	809	JSLH49	125	5677	5	
090607	11:53	809	LH49 kindness	126	3305	kindness	
090607	11:53	809	JSUR10	127	6391	2	
090607	11:53	809	UR10 tribe	128	3083	tribe	
090607	11:53	809	JSHL06	129	9593	2	
090607	11:53	809	HL06 egg	130	2238	egg	
090607	11:53	809	JSUR71	131	3692	10	
090607	11:53	809	UR71 padding	132	1922	padding	
090607	11:53	809	JSUR25	133	14096	8	
090607	11:53	809	UR25 partner	134	2246	partner	
090607	11:53	809	JSUR03	135	4663	2	
090607	11:53	809	UR03 vehicle	136	2602	vehicle	
090607	11:53	809	JSHL28	137	8587	1	
090607	11:53	809	HL28 bird	138	2038	bird	
090607	11:53	809	JSUR100	139	3954	8	
090607	11:53	809	UR100 comb	140	6335	combination	
090607	11:53	809	JSUR89	141	3424	2	
090607	11:53	809	UR89 crow	142	4031	career	
090607	11:53	809	JSUR29	143	13640	6	
090607	11:53	809	UR29 patrol	144	4360	patrol	
090607	11:53	809	JSHL38	145	3902	5	
090607	11:53	809	HL38 boat	146	1769	boat	
090607	11:53	809	JSLH33	147	4323	9	
090607	11:53	809	LH33 fable	148	2719	fable	
090607	11:53	809	JSUR31	149	55956	5	
090607	11:53	809	UR31 diameter	150	3057	diameter	
090607	11:53	809	JSHL19	151	4110	5	
090607	11:53	809	HL19 car	152	2325	car	
090607	11:53	809	JSLH31	153	4321	1	
090607	11:53	809	LH31 self	154	2750	fear	
090607	11:53	809	JSLH13	155	6415	3	
090607	11:53	809	LH13 crease	156	1876	crease	
090607	11:53	809	JSUR37	157	3814	4	
090607	11:53	809	UR37 cloth	158	2874	cotton	
090607	11:53	809	JSHL27	159	4218	5	
090607	11:53	809	HL27 rain	160	2838	rain	
090607	11:53	809	JSUR104	161	12950	5	
090607	11:53	809	UR104 aardvark	162	1759	dark	
090607	11:53	809	JSUR38	163	5043	5	
090607	11:53	809	UR38 energy	164	2836	energy	
090607	11:53	809	JSUR90	165	4065	2	
090607	11:53	809	UR90 sailing	166	2351	sailing	
090607	11:53	809	JSUR57	167	3779	8	
090607	11:53	809	UR57 benefit	168	2193	benefit	
090607	11:53	809	JSUR86	169	3580	5	
090607	11:53	809	UR86 boulevard	170	2655	boulder	
090607	11:53	809	JSLH45	171	3359	7	
090607	11:53	809	LH45 intellect	172	3610	intellect	
090607	11:53	809	JSLH26	173	3080	8	
090607	11:53	809	LH26 center	174	2308	center	
090607	11:53	809	JSUR12	175	4910	4	
090607	11:53	809	UR12 unicorn	176	3078	foam	
090607	11:53	809	JSUR108	177	3472	4	
090607	11:53	809	UR108 shield	178	4641	shield	
090607	11:53	809	JSUR99	179	6486	3	
090607	11:53	809	UR99 branch	180	2434	branch	
090607	11:53	809	JSHL29	181	5197	4	
090607	11:53	809	HL29 ring	182	3508	ring	
090607	11:53	809	JSHL26	183	4957	3	
090607	11:53	809	HL26 light	184	1346	light	
090607	11:53	809	JSLH28	185	4581	5	
090607	11:53	809	LH28 vagrant	186	3274	vagrant	
090607	11:53	809	JSHL52	187	5357	10	
090607	11:53	809	HL52 sand	188	1821	sand	
090607	11:53	809	JSHL48	189	5127	8	
090607	11:53	809	HL48 airplane	190	4048	airplane	
090607	11:53	809	JSUR43	191	42076	5	
090607	11:53	809	UR43 balloon	192	2852	ballet	
090607	11:53	809	JSUR93	193	4371	2	
090607	11:53	809	UR93 catcher	194	2821	castle	
090607	11:53	809	JSHL20	195	16963	3	
090607	11:53	809	HL20 wine	196	4909	wine	
090607	11:53	809	JSHL13	197	3775	6	
090607	11:53	809	HL13 map	198	1374	map	
090607	11:53	809	JSHL12	199	10948	5	
090607	11:53	809	HL12 space	200	1788	space	
090607	11:53	809	JSUR02	201	4549	7	
090607	11:53	809	UR02 comma	202	2295	comet	
090607	11:53	809	JSUR48	203	4584	2	
090607	11:53	809	UR48 democracy	204	3238	democracy	
090607	11:53	809	JSUR08	205	3748	6	
090607	11:53	809	UR08 assistant	206	4239	assist	
090607	11:53	809	JSUR84	207	3482	4	
090607	11:53	809	UR84 flag	208	1486	flag	
090607	11:53	809	JSUR26	209	3282	7	
090607	11:53	809	UR26 eternity	210	4295	windy	
090607	11:53	809	JSLH52	211	3703	7	
090607	11:53	809	LH52 bureau	212	4055	bureau	
090607	11:53	809	JSUR44	213	2635	6	
090607	11:53	809	UR44 rot	214	3489	diamond	
090607	11:53	809	JSUR16	215	6194	5	
090607	11:53	809	UR16 century	216	4575	century	
date	time	subject	trialcode	trialnum	latency	response	
090607	11:55	810	JAPR17	1	10767	5	
090607	11:55	810	PR17 emerald	2	18474	dog	
090607	11:55	810	JAPR27	3	17900	6	
090607	11:55	810	PR27 wheat	4	14514	four	
090607	11:55	810	JAPR07	5	7289	7	
090607	11:55	810	PR07 bog	6	11690	jazz	
090607	11:55	810	JAPR23	7	17193	1	
090607	11:55	810	PR23 companion	8	9110	control	
090607	11:55	810	JAPR06	9	5707	8	
090607	11:55	810	PR06 beast	10	10862	seven	
090607	11:55	810	JAPR09	11	8404	9	
090607	11:55	810	PR09 album	12	10905	china	
090607	11:55	810	JAPR21	13	8154	9	
090607	11:55	810	PR21 innocence	14	19562	bell	
090607	11:55	810	JAPR01	15	7052	7	
090607	11:55	810	PR01 cash	16	3048	cash	
090607	11:55	810	JAPR11	17	3863	8	
090607	11:55	810	PR11 ounce	18	9249	five	
090607	11:55	810	JAPR25	19	4116	5	
090607	11:55	810	PR25 saliva	20	13947	saliva	
090607	11:55	810	JAPR30	21	3910	8	
090607	11:55	810	PR30 maiden	22	8975	hand	
090607	11:55	810	JAPR03	23	5229	1	
090607	11:55	810	PR03 acre	24	11410	practice	
090607	11:55	810	JAPR13	25	17362	10	
090607	11:55	810	PR13 ambition	26	4496	runner	
090607	11:55	810	JAPR04	27	5116	9	
090607	11:55	810	PR04 diaper	28	4488	diaper	
090607	11:55	810	JAUR53	1	9060	8	
090607	11:55	810	UR53 hell	2	4008	hate	
090607	11:55	810	JAUR13	3	5720	8	
090607	11:55	810	UR13 almanac	4	10774	bug	
090607	11:55	810	JAHL07	5	8746	5	
090607	11:55	810	HL07 king	6	6759	desk	
090607	11:55	810	JALH05	7	6652	5	
090607	11:55	810	LH05 chain	8	3851	china	
090607	11:55	810	JALH02	9	7005	9	
090607	11:55	810	LH02 harm	10	3812	ham	
090607	11:55	810	JAUR64	11	5056	7	
090607	11:55	810	UR64 fist	12	6731	ball	
090607	11:55	810	JAUR32	13	4901	4	
090607	11:55	810	UR32 navigator	14	8080	navigator	
090607	11:55	810	JALH50	15	6435	5	
090607	11:55	810	LH50 measure	16	4082	measure	
090607	11:55	810	JALH27	17	3742	9	
090607	11:55	810	LH27 condition	18	7433	bug	
090607	11:55	810	JAHL17	19	3233	8	
090607	11:55	810	HL17 soap	20	8155	lather	
090607	11:55	810	JAUR74	21	3900	9	
090607	11:55	810	UR74 suitcase	22	5535	case	
090607	11:55	810	JAHL36	23	3943	8	
090607	11:55	810	HL36 football	24	3863	football	
090607	11:55	810	JALH20	25	3167	8	
090607	11:55	810	LH20 violation	26	7996	vacation	
090607	11:55	810	JALH54	27	4385	8	
090607	11:55	810	LH54 limit	28	9333	glue	
090607	11:55	810	JALH51	29	11040	6	
090607	11:55	810	LH51 exit	30	4743	hand	
090607	11:55	810	JAUR35	31	6386	4	
090607	11:55	810	UR35 cause	32	4452	cause	
090607	11:55	810	JALH19	33	12764	8	
090607	11:55	810	LH19 snob	34	4622	snob	
090607	11:55	810	JAHL51	35	8028	10	
090607	11:55	810	HL51 color	36	5211	soap	
090607	11:55	810	JAHL47	37	5163	8	
090607	11:55	810	HL47 horse	38	3450	horse	
090607	11:55	810	JAUR45	39	3714	8	
090607	11:55	810	UR45 bridge	40	5473	bridge	
090607	11:55	810	JAUR69	41	4323	6	
090607	11:55	810	UR69 flashlight	42	3265	light	
090607	11:55	810	JAUR76	43	2749	7	
090607	11:55	810	UR76 dignity	44	5547	digit	
090607	11:55	810	JALH24	45	3043	8	
090607	11:55	810	LH24 feeling	46	3305	feeling	
090607	11:55	810	JAHL53	47	2288	7	
090607	11:55	810	HL53 fish	48	2700	fish	
090607	11:55	810	JAUR55	49	4224	9	
090607	11:55	810	UR55 bargain	50	7566	guard	
090607	11:55	810	JAUR50	51	6614	10	
090607	11:55	810	UR50 crane	52	12849	young	
090607	11:55	810	JAHL43	53	2969	7	
090607	11:55	810	HL43 money	54	3233	monkey	
090607	11:55	810	JALH11	55	3683	8	
090607	11:55	810	LH11 cancer	56	2558	cancer	
090607	11:55	810	JAUR77	57	4049	8	
090607	11:55	810	UR77 uncle	58	4956	ugly	
090607	11:55	810	JAUR27	59	2956	8	
090607	11:55	810	UR27 consequence	60	12133	wrench	
090607	11:55	810	JAUR68	61	3241	7	
090607	11:55	810	UR68 fatigue	62	3641	fatigue	
090607	11:55	810	JAUR22	63	7565	8	
090607	11:55	810	UR22 thesaurus	64	9314	dinnner	
090607	11:55	810	JAUR07	65	4068	5	
090607	11:55	810	UR07 gathering	66	6535	cut	
090607	11:55	810	JAUR95	67	2445	5	
090607	11:55	810	UR95 fool	68	5043	fool	
090607	11:55	810	JAUR63	69	3736	10	
090607	11:55	810	UR63 alley	70	4242	gallery	
090607	11:55	810	JAUR06	71	2957	5	
090607	11:55	810	UR06 cello	72	8261	baseball	
090607	11:55	810	JAHL34	73	2211	5	
090607	11:55	810	HL34 hunger	74	13652	hunger	
090607	11:55	810	JAUR66	75	2949	5	
090607	11:55	810	UR66 chief	76	9618	chedder	
090607	11:55	810	JAUR67	77	3995	5	
090607	11:55	810	UR67 producer	78	5801	pastor	
090607	11:55	810	JAUR36	79	3719	7	
090607	11:55	810	UR36 denim	80	7387	happy	
090607	11:55	810	JAUR34	81	5740	9	
090607	11:55	810	UR34 charity	82	5181	charity	
090607	11:55	810	JALH14	83	4138	8	
090607	11:55	810	LH14 note	84	7340	brain	
090607	11:55	810	JAHL50	85	3092	8	
090607	11:55	810	HL50 doctor	86	5932	doctor	
090607	11:55	810	JALH03	87	4488	7	
090607	11:55	810	LH03 yard	88	11252	net	
090607	11:55	810	JALH22	89	2949	7	
090607	11:55	810	LH22 crowd	90	8278	crowd	
090607	11:55	810	JAUR46	91	2993	7	
090607	11:55	810	UR46 content	92	6488	medicine	
090607	11:55	810	JAUR75	93	2152	7	
090607	11:55	810	UR75 awe	94	4786	battle	
090607	11:55	810	JAUR78	95	2384	8	
090607	11:55	810	UR78 blender	96	3546	blender	
090607	11:55	810	JAHL39	97	1847	7	
090607	11:55	810	HL39 book	98	2936	book	
090607	11:55	810	JAUR62	99	2272	7	
090607	11:55	810	UR62 chemistry	100	5542	chemistry	
090607	11:55	810	JALH04	101	7516	7	
090607	11:55	810	LH04 grade	102	4176	grade	
090607	11:55	810	JAHL03	103	2279	5	
090607	11:55	810	HL03 cigarette	104	15457	smoke	
090607	11:55	810	JAUR20	105	1693	7	
090607	11:55	810	UR20 climax	106	8108	globe	
090607	11:55	810	JALH23	107	2414	7	
090607	11:55	810	LH23 possibility	108	6770	possibility	
090607	11:55	810	JAHL09	109	1158	5	
090607	11:55	810	HL09 chalk	110	7837	age	
090607	11:55	810	JALH01	111	2537	7	
090607	11:55	810	LH01 brain	112	3073	brain	
090607	11:55	810	JAHL42	113	1502	8	
090607	11:55	810	HL42 pie	114	3035	pie	
090607	11:55	810	JALH43	115	5972	8	
090607	11:55	810	LH43 noise	116	2353	noise	
090607	11:55	810	JALH30	117	4211	9	
090607	11:55	810	LH30 assignment	118	5347	assignment	
090607	11:55	810	JALH53	119	3000	7	
090607	11:55	810	LH53 core	120	3360	core	
090607	11:55	810	JAUR47	121	2302	5	
090607	11:55	810	UR47 chimpanzee	122	20096	chemistry	
090607	11:55	810	JAUR42	123	1487	7	
090607	11:55	810	UR42 sergeant	124	14257	sergeant	
090607	11:55	810	JAUR01	125	1785	7	
090607	11:55	810	UR01 file	126	6729	profile	
090607	11:55	810	JAUR87	127	1584	7	
090607	11:55	810	UR87 duty	128	3467	duty	
090607	11:55	810	JAHL24	129	1978	7	
090607	11:55	810	HL24 eye	130	2895	eye	
090607	11:55	810	JAUR58	131	728	7	
090607	11:55	810	UR58 answer	132	8646	hard	
090607	11:55	810	JAHL41	133	1855	7	
090607	11:55	810	HL41 hand	134	2468	hands	
090607	11:55	810	JAUR54	135	1217	7	
090607	11:55	810	UR54 steam	136	3384	steam	
090607	11:55	810	JAUR82	137	1609	7	
090607	11:55	810	UR82 campus	138	3357	campus	
090607	11:55	810	JAHL49	139	2042	8	
090607	11:55	810	HL49 spice	140	3333	spice	
090607	11:55	810	JAUR103	141	4308	8	
090607	11:55	810	UR103 hula	142	2377	haul	
090607	11:55	810	JAUR70	143	2068	8	
090607	11:55	810	UR70 pajamas	144	3224	pots	
090607	11:55	810	JAHL23	145	2481	8	
090607	11:55	810	HL23 baby	146	2593	baby	
090607	11:55	810	JALH09	147	1321	7	
090607	11:55	810	LH09 piece	148	3842	piece	
090607	11:55	810	JAHL05	149	2996	5	
090607	11:55	810	HL05 mountain	150	5665	sustain	
090607	11:55	810	JAHL25	151	1840	7	
090607	11:55	810	HL25 cut	152	4119	five	
090607	11:55	810	JAHL32	153	1922	5	
090607	11:55	810	HL32 television	154	4707	television	
090607	11:55	810	JALH38	155	6928	7	
090607	11:55	810	LH38 paint	156	9847	pipe	
090607	11:55	810	JAUR52	157	1384	7	
090607	11:55	810	UR52 knight	158	5505	court	
090607	11:55	810	JAPR28	159	1660	7	
090607	11:55	810	PR28 challenge	160	3145	challenge	
090607	11:55	810	JALH25	161	1304	5	
090607	11:55	810	LH25 track	162	2712	track	
090607	11:55	810	JAUR24	163	981	7	
090607	11:55	810	UR24 kid	164	2258	kin	
090607	11:55	810	JAUR17	165	1489	7	
090607	11:55	810	UR17 trance	166	6528	stand	
090607	11:55	810	JAHL10	167	2423	7	
090607	11:55	810	HL10 cow	168	4987	control	
090607	11:55	810	JAUR30	169	2483	7	
090607	11:55	810	UR30 lover	170	3639	lover	
090607	11:55	810	JAUR14	171	1996	7	
090607	11:55	810	UR14 fudge	172	3084	fugitive	
090607	11:55	810	JAUR60	173	2155	8	
090607	11:55	810	UR60 plaque	174	4526	place	
090607	11:55	810	JAHL21	175	1419	5	
090607	11:55	810	HL21 empire	176	3162	empire	
090607	11:55	810	JAHL45	177	1893	5	
090607	11:55	810	HL45 words	178	6580	attention	
090607	11:55	810	JAUR107	179	1454	5	
090607	11:55	810	UR107 cocaine	180	15090	cocaine	
090607	11:55	810	JALH46	181	1369	5	
090607	11:55	810	LH46 submarine	182	4709	submarine	
090607	11:55	810	JAUR85	183	1416	5	
090607	11:55	810	UR85 stroke	184	2552	stroke	
090607	11:55	810	JAUR28	185	1326	4	
090607	11:55	810	UR28 bang	186	2037	bang	
090607	11:55	810	JAUR98	187	2154	5	
090607	11:55	810	UR98 latch	188	3482	watch	
090607	11:55	810	JAUR105	189	1864	4	
090607	11:55	810	UR105 curtain	190	2958	stain	
090607	11:55	810	JAUR65	191	1793	4	
090607	11:55	810	UR65 checkers	192	3820	chedder	
090607	11:55	810	JAUR106	193	1407	4	
090607	11:55	810	UR106 eagle	194	13271	paying	
090607	11:55	810	JALH17	195	2412	5	
090607	11:55	810	LH17 life	196	4724	five	
090607	11:55	810	JAUR04	197	1001	5	
090607	11:55	810	UR04 marsh	198	2206	harsh	
090607	11:55	810	JAHL31	199	2144	5	
090607	11:55	810	HL31 war	200	2243	war	
090607	11:55	810	JALH07	201	2852	5	
090607	11:55	810	LH07 rear	202	3344	bread	
090607	11:55	810	JAHL33	203	1061	2	
090607	11:55	810	HL33 joke	204	2290	joke	
090607	11:55	810	JAHL01	205	2886	7	
090607	11:55	810	HL01 elephant	206	3719	elephant	
090607	11:55	810	JALH37	207	1821	5	
090607	11:55	810	LH37 pad	208	2320	pad	
090607	11:55	810	JAHL14	209	2089	5	
090607	11:55	810	HL14 milk	210	2178	milk	
090607	11:55	810	JAUR96	211	2130	4	
090607	11:55	810	UR96 dessert	212	3489	dessert	
090607	11:55	810	JALH32	213	2247	4	
090607	11:55	810	LH32 capacity	214	3117	happy	
090607	11:55	810	JAUR59	215	2194	4	
090607	11:55	810	UR59 copper	216	2401	copper	
090607	11:55	810	JAUR21	217	3513	10	
090607	11:55	810	UR21 ore	218	3653	gold	
090607	11:55	810	JSPR26	1	10015	5	
090607	11:55	810	PR26 colonel	2	4755	colony	
090607	11:55	810	JSPR24	3	9068	7	
090607	11:55	810	PR24 pest	4	2434	pest	
090607	11:55	810	JSPR08	5	5215	10	
090607	11:55	810	PR08 beef	6	3631	beef	
090607	11:55	810	JSPR05	7	4434	10	
090607	11:55	810	PR05 calf	8	3750	call	
090607	11:55	810	JSPR14	9	2408	10	
090607	11:55	810	PR14 religion	10	11026	religion	
090607	11:55	810	JSPR19	11	3983	10	
090607	11:55	810	PR19 void	12	9237	were	
090607	11:55	810	JSPR12	13	3207	10	
090607	11:55	810	PR12 royalty	14	4175	royalty	
090607	11:55	810	JSPR02	15	5252	7	
090607	11:55	810	PR02 wrinkle	16	3057	wrinkle	
090607	11:55	810	JSPR10	17	3813	9	
090607	11:55	810	PR10 camel	18	2947	camel	
090607	11:55	810	JSPR15	19	4184	8	
090607	11:55	810	PR15 depletion	20	11677	completion	
090607	11:55	810	JSPR20	21	4499	8	
090607	11:55	810	PR20 advertisement	22	18679	advertisement	
090607	11:55	810	JSPR29	23	6348	10	
090607	11:55	810	PR29 mermaid	24	3956	mermaid	
090607	11:55	810	JSPR16	25	4200	10	
090607	11:55	810	PR16 compulsion	26	4703	compulsion	
090607	11:55	810	JSPR22	27	6969	10	
090607	11:55	810	PR22 ass	28	8694	brain	
090607	11:55	810	JSPR18	29	7028	4	
090607	11:55	810	PR18 clorox	30	5095	steam	
090607	11:55	810	JSUR33	1	3704	10	
090607	11:55	810	UR33 horror	2	4101	horror	
090607	11:55	810	JSUR41	3	2113	8	
090607	11:55	810	UR41 chime	4	2193	chime	
090607	11:55	810	JSLH06	5	3316	9	
090607	11:55	810	LH06 element	6	3344	climate	
090607	11:55	810	JSHL40	7	1660	9	
090607	11:55	810	HL40 temperature	8	5740	temperature	
090607	11:55	810	JSLH10	9	2777	10	
090607	11:55	810	LH10 care	10	4780	control	
090607	11:55	810	JSHL16	11	3251	10	
090607	11:55	810	HL16 broom	12	1958	broom	
090607	11:55	810	JSLH42	13	5050	8	
090607	11:55	810	LH42 thought	14	2659	thought	
090607	11:55	810	JSLH44	15	3596	10	
090607	11:55	810	LH44 vessel	16	2204	vessel	
090607	11:55	810	JSLH41	17	2324	10	
090607	11:55	810	LH41 girl	18	2726	girl	
090607	11:55	810	JSHL08	19	1984	10	
090607	11:55	810	HL08 math	20	1534	math	
090607	11:55	810	JSHL30	21	2701	9	
090607	11:55	810	HL30 air	22	1631	air	
090607	11:55	810	JSLH34	23	2150	9	
090607	11:55	810	LH34 panel	24	2074	panel	
090607	11:55	810	JSHL37	25	1896	10	
090607	11:55	810	HL37 thread	26	2029	thread	
090607	11:55	810	JSUR23	27	1761	10	
090607	11:55	810	UR23 abundance	28	3565	ambulance	
090607	11:55	810	JSUR94	29	2331	10	
090607	11:55	810	UR94 bristle	30	4878	case	
090607	11:55	810	JSLH29	31	3625	9	
090607	11:55	810	LH29 closet	32	2307	closet	
090607	11:55	810	JSUR97	33	2098	10	
090607	11:55	810	UR97 banner	34	3119	banner	
090607	11:55	810	JSUR73	35	5714	10	
090607	11:55	810	UR73 kite	36	2551	sprite	
090607	11:55	810	JSHL15	37	1995	10	
090607	11:55	810	HL15 bomb	38	4512	control	
090607	11:55	810	JSUR05	39	1822	10	
090607	11:55	810	UR05 lease	40	6845	suicide	
090607	11:55	810	JSLH40	41	1897	8	
090607	11:55	810	LH40 field	42	3729	area	
090607	11:55	810	JSUR09	43	1253	9	
090607	11:55	810	UR09 education	44	4044	education	
090607	11:55	810	JSHL18	45	2843	10	
090607	11:55	810	HL18 paper	46	2516	paper	
090607	11:55	810	JSUR61	47	2558	9	
090607	11:55	810	UR61 suicide	48	5409	look	
090607	11:55	810	JSLH18	49	1882	9	
090607	11:55	810	LH18 edge	50	1890	edge	
090607	11:55	810	JSHL04	51	1384	9	
090607	11:55	810	HL04 beer	52	1749	beer	
090607	11:55	810	JSUR19	53	2120	10	
090607	11:55	810	UR19 bison	54	2323	board	
090607	11:55	810	JSLH12	55	1989	10	
090607	11:55	810	LH12 addition	56	8043	right	
090607	11:55	810	JSHL02	57	2924	10	
090607	11:55	810	HL02 flower	58	4819	flower	
090607	11:55	810	JSLH36	59	2065	10	
090607	11:55	810	LH36 gang	60	1553	gang	
090607	11:55	810	JSLH48	61	1612	9	
090607	11:55	810	LH48 outcome	62	3233	outcome	
090607	11:55	810	JSLH15	63	1235	10	
090607	11:55	810	LH15 blessing	64	2067	blessing	
090607	11:55	810	JSHL35	65	1562	10	
090607	11:55	810	HL35 cake	66	2510	cake	
090607	11:55	810	JSUR40	67	1458	9	
090607	11:55	810	UR40 dancer	68	2876	dancer	
090607	11:55	810	JSUR88	69	1542	9	
090607	11:55	810	UR88 circus	70	2127	crime	
090607	11:55	810	JSUR81	71	1991	10	
090607	11:55	810	UR81 acid	72	2227	acid	
090607	11:55	810	JSUR92	73	1831	10	
090607	11:55	810	UR92 dart	74	3078	danger	
090607	11:55	810	JSHL44	75	1628	10	
090607	11:55	810	HL44 baseball	76	3036	baseball	
090607	11:55	810	JSHL46	77	1561	10	
090607	11:55	810	HL46 butter	78	3213	butter	
090607	11:55	810	JSUR15	79	2131	10	
090607	11:55	810	UR15 compass	80	2257	compass	
090607	11:55	810	JSLH35	81	2216	10	
090607	11:55	810	LH35 shelter	82	3170	shelter	
090607	11:55	810	JSUR91	83	1421	10	
090607	11:55	810	UR91 anteater	84	13030	anthropology	
090607	11:55	810	JSLH08	85	1810	10	
090607	11:55	810	LH08 house	86	2378	house	
090607	11:55	810	JSLH21	87	1689	9	
090607	11:55	810	LH21 monument	88	8228	monument	
090607	11:55	810	JSUR83	89	1737	9	
090607	11:55	810	UR83 lesson	90	2228	lesson	
090607	11:55	810	JSHL22	91	2910	10	
090607	11:55	810	HL22 problem	92	2424	problem	
090607	11:55	810	JSLH47	93	5653	10	
090607	11:55	810	LH47 detergent	94	2909	detergent	
090607	11:55	810	JSUR56	95	1545	10	
090607	11:55	810	UR56 antler	96	7700	alter	
090607	11:55	810	JSUR80	97	1476	10	
090607	11:55	810	UR80 antique	98	7810	disease	
090607	11:55	810	JSUR11	99	1412	10	
090607	11:55	810	UR11 foundation	100	4086	foundation	
090607	11:55	810	JSHL11	101	2067	10	
090607	11:55	810	HL11 rock	102	3785	stone	
090607	11:55	810	JSLH16	103	2119	10	
090607	11:55	810	LH16 power	104	2057	power	
090607	11:55	810	JSUR18	105	1395	10	
090607	11:55	810	UR18 relief	106	2619	belief	
090607	11:55	810	JSLH39	107	1421	10	
090607	11:55	810	LH39 reward	108	2817	reward	
090607	11:55	810	JSUR79	109	1924	9	
090607	11:55	810	UR79 beetle	110	7318	belief	
090607	11:55	810	JSUR102	111	1573	9	
090607	11:55	810	UR102 velocity	112	3993	victory	
090607	11:55	810	JSUR101	113	1442	10	
090607	11:55	810	UR101 beard	114	3556	beer	
090607	11:55	810	JSUR72	115	1829	10	
090607	11:55	810	UR72 band	116	6014	grape	
090607	11:55	810	JSUR51	117	2899	10	
090607	11:55	810	UR51 cabbage	118	2710	cabbage	
090607	11:55	810	JSHL54	119	1700	10	
090607	11:55	810	HL54 indian	120	4717	indian	
090607	11:55	810	JSUR39	121	1781	10	
090607	11:55	810	UR39 faith	122	3841	faith	
090607	11:55	810	JSUR49	123	1311	10	
090607	11:55	810	UR49 casket	124	4226	basket	
090607	11:55	810	JSLH49	125	1240	10	
090607	11:55	810	LH49 kindness	126	2599	kindness	
090607	11:55	810	JSUR10	127	2324	10	
090607	11:55	810	UR10 tribe	128	6511	bridge	
090607	11:55	810	JSHL06	129	1918	10	
090607	11:55	810	HL06 egg	130	2823	pig	
090607	11:55	810	JSUR71	131	1285	10	
090607	11:55	810	UR71 padding	132	5365	padding	
090607	11:55	810	JSUR25	133	1826	10	
090607	11:55	810	UR25 partner	134	8122	party	
090607	11:55	810	JSUR03	135	1017	10	
090607	11:55	810	UR03 vehicle	136	9372	new	
090607	11:55	810	JSHL28	137	3100	10	
090607	11:55	810	HL28 bird	138	3999	bird	
090607	11:55	810	JSUR100	139	1846	9	
090607	11:55	810	UR100 comb	140	1824	comb	
090607	11:55	810	JSUR89	141	2525	4	
090607	11:55	810	UR89 crow	142	3185	crow	
090607	11:55	810	JSUR29	143	1724	7	
090607	11:55	810	UR29 patrol	144	4708	pastor	
090607	11:55	810	JSHL38	145	1523	8	
090607	11:55	810	HL38 boat	146	3409	boat	
090607	11:55	810	JSLH33	147	843	8	
090607	11:55	810	LH33 fable	148	4806	fable	
090607	11:55	810	JSUR31	149	1797	8	
090607	11:55	810	UR31 diameter	150	8131	diameter	
090607	11:55	810	JSHL19	151	1475	9	
090607	11:55	810	HL19 car	152	2379	car	
090607	11:55	810	JSLH31	153	1490	9	
090607	11:55	810	LH31 self	154	5172	belief	
090607	11:55	810	JSLH13	155	1360	8	
090607	11:55	810	LH13 crease	156	2418	message	
090607	11:55	810	JSUR37	157	1102	9	
090607	11:55	810	UR37 cloth	158	1840	cloth	
090607	11:55	810	JSHL27	159	840	9	
090607	11:55	810	HL27 rain	160	2046	rain	
090607	11:55	810	JSUR104	161	1214	10	
090607	11:55	810	UR104 aardvark	162	2887	dark	
090607	11:55	810	JSUR38	163	1274	9	
090607	11:55	810	UR38 energy	164	5662	enemy 	
090607	11:55	810	JSUR90	165	2544	9	
090607	11:55	810	UR90 sailing	166	2883	sailing	
090607	11:55	810	JSUR57	167	1025	9	
090607	11:55	810	UR57 benefit	168	3734	basket	
090607	11:55	810	JSUR86	169	1102	9	
090607	11:55	810	UR86 boulevard	170	15189	bible	
090607	11:55	810	JSLH45	171	1302	9	
090607	11:55	810	LH45 intellect	172	3901	neglect	
090607	11:55	810	JSLH26	173	1499	9	
090607	11:55	810	LH26 center	174	5102	center	
090607	11:55	810	JSUR12	175	1549	9	
090607	11:55	810	UR12 unicorn	176	4073	popcorn	
090607	11:55	810	JSUR108	177	1094	9	
090607	11:55	810	UR108 shield	178	2478	shield	
090607	11:55	810	JSUR99	179	1596	9	
090607	11:55	810	UR99 branch	180	5371	branch	
090607	11:55	810	JSHL29	181	1820	8	
090607	11:55	810	HL29 ring	182	2378	string	
090607	11:55	810	JSHL26	183	2540	10	
090607	11:55	810	HL26 light	184	2881	sight	
090607	11:55	810	JSLH28	185	1336	10	
090607	11:55	810	LH28 vagrant	186	13229	fun	
090607	11:55	810	JSHL52	187	1536	10	
090607	11:55	810	HL52 sand	188	1895	stand	
090607	11:55	810	JSHL48	189	1088	9	
090607	11:55	810	HL48 airplane	190	3031	airplane	
090607	11:55	810	JSUR43	191	1279	9	
090607	11:55	810	UR43 balloon	192	3114	balloon	
090607	11:55	810	JSUR93	193	740	9	
090607	11:55	810	UR93 catcher	194	5683	moat	
090607	11:55	810	JSHL20	195	1090	9	
090607	11:55	810	HL20 wine	196	3019	wine	
090607	11:55	810	JSHL13	197	1207	10	
090607	11:55	810	HL13 map	198	1472	map	
090607	11:55	810	JSHL12	199	1253	10	
090607	11:55	810	HL12 space	200	2479	space	
090607	11:55	810	JSUR02	201	1254	9	
090607	11:55	810	UR02 comma	202	3950	comet	
090607	11:55	810	JSUR48	203	1466	10	
090607	11:55	810	UR48 democracy	204	4262	democracy	
090607	11:55	810	JSUR08	205	2398	9	
090607	11:55	810	UR08 assistant	206	4859	stroll	
090607	11:55	810	JSUR84	207	1628	10	
090607	11:55	810	UR84 flag	208	1719	flag	
090607	11:55	810	JSUR26	209	1524	9	
090607	11:55	810	UR26 eternity	210	3660	eternity	
090607	11:55	810	JSLH52	211	1373	9	
090607	11:55	810	LH52 bureau	212	1886	blue	
090607	11:55	810	JSUR44	213	1666	9	
090607	11:55	810	UR44 rot	214	5826	black	
090607	11:55	810	JSUR16	215	1420	10	
090607	11:55	810	UR16 century	216	6663	century	
date	time	subject	trialcode	trialnum	latency	response	
090607	12:11	812	JSPR17	1	19893	4	
090607	12:11	812	PR17 emerald	2	24398	control	
090607	12:11	812	JSPR27	3	6826	8	
090607	12:11	812	PR27 wheat	4	27162	saw	
090607	12:11	812	JSPR07	5	7816	7	
090607	12:11	812	PR07 bog	6	9172	music	
090607	12:11	812	JSPR23	7	6619	8	
090607	12:11	812	PR23 companion	8	19698	country	
090607	12:11	812	JSPR06	9	14907	1	
