date	time	subject	trialcode	trialnum	latency	response
082812	11:36	14234	lost	1	23015	found dog keys
082812	11:36	14234	article	2	7476	clothing
082812	11:36	14234	old	3	3673	young 
082812	11:36	14234	prac2	1	3811	8
082812	11:36	14234	prac1	2	19289	10
082812	11:36	14234	prac8	3	3309	9
082812	11:36	14234	prac3	4	1263	4
082812	11:36	14234	prac7	5	1114	3
082812	11:36	14234	prac4	6	1147	2
082812	11:36	14234	prac5	7	922	9
082812	11:36	14234	prac6	8	1211	8
082812	11:36	14234	real33	1	1129	6
082812	11:36	14234	real35	2	488	9
082812	11:36	14234	real79	3	746	6
082812	11:36	14234	real18	4	890	6
082812	11:36	14234	confidence	5	11883	1
082812	11:36	14234	real24	6	1121	5
082812	11:36	14234	real54	7	7578	6
082812	11:36	14234	real48	8	2701	0
082812	11:36	14234	followup2	1	15236	1
082812	11:36	14234	followup1	2	798	3
082812	11:39	45465465	real33	1	422	0
082812	11:39	45465465	followup1	1	675	0
090412	09:05	8	old	1	26848	grandparents
090412	09:05	8	article	2	9549	newspaper
090412	09:05	8	lost	3	19008	dog
090412	09:05	8	prac3	1	32009	3
090412	09:05	8	prac8	2	16553	9
090412	09:05	8	prac6	3	10021	6
090412	09:05	8	prac5	4	29060	4
090412	09:05	8	prac7	5	9105	6
090412	09:05	8	prac2	6	12469	8
090412	09:05	8	prac4	7	7091	5
090412	09:05	8	prac1	8	7703	3
090412	09:05	8	real33	1	21190	5
090412	09:05	8	real35	2	14106	7
090412	09:05	8	real79	3	7639	4
090412	09:05	8	real18	4	9886	8
090412	09:05	8	confidence	5	28530	9
090412	09:05	8	real24	6	18043	9
090412	09:05	8	real54	7	5804	9
090412	09:05	8	real48	8	5539	9
090412	09:05	8	real6	9	9477	10
090412	09:05	8	confidence	10	14177	9
090412	09:05	8	real7	11	11612	9
090412	09:05	8	real68	12	5364	8
090412	09:05	8	real38	13	9732	7
090412	09:05	8	real58	14	12695	9
090412	09:05	8	confidence	15	6060	9
090412	09:05	8	real86	16	15112	5
090412	09:05	8	real17	17	7198	7
090412	09:05	8	real71	18	22653	9
090412	09:05	8	real66	19	4503	8
090412	09:05	8	confidence	20	5962	9
090412	09:05	8	real19	21	9634	10
090412	09:05	8	real67	22	5001	9
090412	09:05	8	real32	23	5863	3
090412	09:05	8	real43	24	4603	2
090412	09:05	8	confidence	25	10354	2
090412	09:05	8	real93	26	6013	6
090412	09:05	8	real15	27	7331	6
090412	09:05	8	real16	28	6293	7
090412	09:05	8	real61	29	6864	10
090412	09:05	8	confidence	30	6516	5
090412	09:05	8	real44	31	14087	7
090412	09:05	8	real88	32	70108	5
090412	09:05	8	real69	33	4476	6
090412	09:05	8	real34	34	4919	9
090412	09:05	8	confidence	35	5657	8
090412	09:05	8	real13	36	6678	8
090412	09:05	8	real56	37	9986	7
090412	09:05	8	real80	38	5843	7
090412	09:05	8	real36	39	5976	5
090412	09:05	8	confidence	40	4671	6
090412	09:05	8	real62	41	8947	9
090412	09:05	8	real75	42	7525	9
090412	09:05	8	real39	43	3439	9
090412	09:05	8	real26	44	4556	9
090412	09:05	8	confidence	45	2973	9
090412	09:05	8	real37	46	5380	9
090412	09:05	8	real90	47	5155	8
090412	09:05	8	real72	48	4404	6
090412	09:05	8	real30	49	3059	9
090412	09:05	8	confidence	50	5679	6
090412	09:05	8	real77	51	5954	6
090412	09:05	8	real59	52	6947	8
090412	09:05	8	real73	53	4437	8
090412	09:05	8	real89	54	3754	9
090412	09:05	8	confidence	55	2634	9
090412	09:05	8	real82	56	2782	9
090412	09:05	8	real94	57	10845	10
090412	09:05	8	real64	58	5716	10
090412	09:05	8	real20	59	6958	5
090412	09:05	8	confidence	60	7279	5
090412	09:05	8	real5	61	7123	9
090412	09:05	8	real40	62	2686	9
090412	09:05	8	real22	63	2920	9
090412	09:05	8	real25	64	8282	9
090412	09:05	8	confidence	65	5638	8
090412	09:05	8	real9	66	4156	9
090412	09:05	8	real53	67	6548	3
090412	09:05	8	real60	68	6597	5
090412	09:05	8	real92	69	8388	10
090412	09:05	8	confidence	70	4909	10
090412	09:05	8	real91	71	4479	4
090412	09:05	8	real8	72	4547	5
090412	09:05	8	real4	73	5011	10
090412	09:05	8	real49	74	13489	9
090412	09:05	8	confidence	75	11590	9
090412	09:05	8	real31	76	13160	5
090412	09:05	8	real55	77	8475	10
090412	09:05	8	real14	78	2959	7
090412	09:05	8	real42	79	3975	6
090412	09:05	8	confidence	80	3719	7
090412	09:05	8	real50	81	9888	10
090412	09:05	8	real12	82	4933	10
090412	09:05	8	real11	83	6222	10
090412	09:05	8	real65	84	6149	9
090412	09:05	8	confidence	85	2830	9
090412	09:05	8	real95	86	4875	10
090412	09:05	8	real52	87	4759	10
090412	09:05	8	real78	88	6199	4
090412	09:05	8	real81	89	3910	10
090412	09:05	8	confidence	90	3455	10
090412	09:05	8	real76	91	7532	10
090412	09:05	8	real45	92	5590	5
090412	09:05	8	real29	93	5733	10
090412	09:05	8	real83	94	3791	10
090412	09:05	8	confidence	95	7206	9
090412	09:05	8	real51	96	5165	8
090412	09:05	8	real74	97	3462	9
090412	09:05	8	real1	98	3977	7
090412	09:05	8	real63	99	3904	9
090412	09:05	8	confidence	100	2586	9
090412	09:05	8	real41	101	3697	10
090412	09:05	8	real57	102	4539	6
090412	09:05	8	real70	103	6452	9
090412	09:05	8	real10	104	3409	4
090412	09:05	8	confidence	105	6055	9
090412	09:05	8	real28	106	3356	7
090412	09:05	8	real27	107	3229	9
090412	09:05	8	real84	108	4129	6
090412	09:05	8	real87	109	3842	10
090412	09:05	8	confidence	110	4686	10
090412	09:05	8	real2	111	3538	5
090412	09:05	8	real3	112	3899	6
090412	09:05	8	real21	113	26716	9
090412	09:05	8	real23	114	2262	9
090412	09:05	8	confidence	115	3713	10
090412	09:05	8	real96	116	2763	9
090412	09:05	8	real46	117	5522	10
090412	09:05	8	real47	118	4148	10
090412	09:05	8	real85	119	10293	10
090412	09:05	8	confidence	120	3113	6
090412	09:05	8	followup1	1	61553	3
090412	09:05	8	followup2	2	41812	1
090412	10:34	8	old	1	6897	Young
090412	10:34	8	article	2	7621	Newspaper
090412	10:34	8	lost	3	4869	Found
090412	10:34	8	prac8	1	11058	9
090412	10:34	8	prac6	2	3032	9
090412	10:34	8	prac7	3	3309	3
090412	10:34	8	prac1	4	5703	3
090412	10:34	8	prac3	5	2306	4
090412	10:34	8	prac2	6	2923	10
090412	10:34	8	prac5	7	3413	8
090412	10:34	8	prac4	8	3282	6
090412	10:34	8	real33	1	4466	8
090412	10:34	8	real35	2	3142	8
090412	10:34	8	real79	3	2207	4
090412	10:34	8	real18	4	6092	8
090412	10:34	8	confidence	5	4592	6
090412	10:34	8	real24	6	5422	9
090412	10:34	8	real54	7	5085	9
090412	10:34	8	real48	8	4072	5
090412	10:34	8	real6	9	1676	10
090412	10:34	8	confidence	10	5063	9
090412	10:34	8	real7	11	3347	9
090412	10:34	8	real68	12	3611	7
090412	10:34	8	real38	13	4048	10
090412	10:34	8	real58	14	3325	10
090412	10:34	8	confidence	15	2879	8
090412	10:34	8	real86	16	2377	7
090412	10:34	8	real17	17	2471	10
090412	10:34	8	real71	18	2899	9
090412	10:34	8	real66	19	3052	8
090412	10:34	8	confidence	20	3345	8
090412	10:34	8	real19	21	2865	10
090412	10:34	8	real67	22	2204	10
090412	10:34	8	real32	23	2298	8
090412	10:34	8	real43	24	2523	9
090412	10:34	8	confidence	25	2117	6
090412	10:34	8	real93	26	3405	10
090412	10:34	8	real15	27	3564	7
090412	10:34	8	real16	28	1467	8
090412	10:34	8	real61	29	1950	10
090412	10:34	8	confidence	30	1886	10
090412	10:34	8	real44	31	3656	5
090412	10:34	8	real88	32	4028	7
090412	10:34	8	real69	33	1722	10
090412	10:34	8	real34	34	4122	9
090412	10:34	8	confidence	35	1772	8
090412	10:34	8	real13	36	5563	8
090412	10:34	8	real56	37	1251	10
090412	10:34	8	real80	38	1919	9
090412	10:34	8	real36	39	2312	3
090412	10:34	8	confidence	40	2641	4
090412	10:34	8	real62	41	4525	8
090412	10:34	8	real75	42	3143	10
090412	10:34	8	real39	43	2511	10
090412	10:34	8	real26	44	5040	5
090412	10:34	8	confidence	45	2405	7
090412	10:34	8	real37	46	4179	9
090412	10:34	8	real90	47	2730	9
090412	10:34	8	real72	48	1891	7
090412	10:34	8	real30	49	1485	10
090412	10:34	8	confidence	50	1551	9
090412	10:34	8	real77	51	1703	10
090412	10:34	8	real59	52	1841	8
090412	10:34	8	real73	53	1373	10
090412	10:34	8	real89	54	2052	10
090412	10:34	8	confidence	55	1544	9
090412	10:34	8	real82	56	4295	7
090412	10:34	8	real94	57	2066	8
090412	10:34	8	real64	58	3013	9
090412	10:34	8	real20	59	2506	10
090412	10:34	8	confidence	60	988	10
090412	10:34	8	real5	61	1586	10
090412	10:34	8	real40	62	2248	10
090412	10:34	8	real22	63	6452	8
090412	10:34	8	real25	64	3697	9
090412	10:34	8	confidence	65	1932	7
090412	10:34	8	real9	66	2044	10
090412	10:34	8	real53	67	3160	9
090412	10:34	8	real60	68	5191	7
090412	10:34	8	real92	69	1294	10
090412	10:34	8	confidence	70	824	9
090412	10:34	8	real91	71	2652	8
090412	10:34	8	real8	72	3264	7
090412	10:34	8	real4	73	1228	10
090412	10:34	8	real49	74	2080	10
090412	10:34	8	confidence	75	5514	9
090412	10:34	8	real31	76	5684	8
090412	10:34	8	real55	77	1424	10
090412	10:34	8	real14	78	1757	10
090412	10:34	8	real42	79	2988	9
090412	10:34	8	confidence	80	1994	9
090412	10:34	8	real50	81	1161	10
090412	10:34	8	real12	82	2383	10
090412	10:34	8	real11	83	1590	10
090412	10:34	8	real65	84	2052	8
090412	10:34	8	confidence	85	1528	6
090412	10:34	8	real95	86	2512	9
090412	10:34	8	real52	87	3305	6
090412	10:34	8	real78	88	4187	7
090412	10:34	8	real81	89	1274	10
090412	10:34	8	confidence	90	1301	9
090412	10:34	8	real76	91	3982	9
090412	10:34	8	real45	92	1782	8
090412	10:34	8	real29	93	2076	10
090412	10:34	8	real83	94	4631	9
090412	10:34	8	confidence	95	3892	8
090412	10:34	8	real51	96	2543	9
090412	10:34	8	real74	97	2847	10
090412	10:34	8	real1	98	1563	7
090412	10:34	8	real63	99	1354	7
090412	10:34	8	confidence	100	2465	5
090412	10:34	8	real41	101	1428	10
090412	10:34	8	real57	102	1760	7
090412	10:34	8	real70	103	1783	8
090412	10:34	8	real10	104	6990	1
090412	10:34	8	confidence	105	2813	6
090412	10:34	8	real28	106	3835	9
090412	10:34	8	real27	107	5320	9
090412	10:34	8	real84	108	3010	9
090412	10:34	8	real87	109	1543	10
090412	10:34	8	confidence	110	2391	8
090412	10:34	8	real2	111	2782	2
090412	10:34	8	real3	112	4148	7
090412	10:34	8	real21	113	1165	10
090412	10:34	8	real23	114	2172	10
090412	10:34	8	confidence	115	1563	6
090412	10:34	8	real96	116	2666	7
090412	10:34	8	real46	117	2061	10
090412	10:34	8	real47	118	3056	8
090412	10:34	8	real85	119	2676	9
090412	10:34	8	confidence	120	2591	8
090412	10:34	8	followup2	1	18288	1
090412	10:34	8	followup1	2	13888	3
090412	14:26	64	old	1	10421	young
090412	14:26	64	article	2	5646	journal
090412	14:26	64	lost	3	2467	found
090412	14:26	64	prac8	1	6376	6
090412	14:26	64	prac7	2	3816	4
090412	14:26	64	prac5	3	5117	4
090412	14:26	64	prac3	4	3592	2
090412	14:26	64	prac6	5	3963	7
090412	14:26	64	prac4	6	4710	7
090412	14:26	64	prac1	7	3640	3
090412	14:26	64	prac2	8	6973	9
090412	14:26	64	real33	1	7796	3
090412	14:26	64	real35	2	3435	6
090412	14:26	64	real79	3	3728	3
090412	14:26	64	real18	4	3617	8
090412	14:26	64	confidence	5	4758	7
090412	14:26	64	real24	6	3447	8
090412	14:26	64	real54	7	5467	4
090412	14:26	64	real48	8	4119	6
090412	14:26	64	real6	9	13122	10
090412	14:26	64	confidence	10	2894	9
090412	14:26	64	real7	11	2696	4
090412	14:26	64	real68	12	3874	5
090512	10:04	8	article	1	14432	paper
090512	10:04	8	old	2	5753	grandma
090512	10:04	8	lost	3	3187	tv
090512	10:04	8	prac4	1	10625	7
090512	10:04	8	prac3	2	5448	3
090512	10:04	8	prac7	3	3589	8
090512	10:04	8	prac8	4	3356	9
090512	10:04	8	prac5	5	4740	8
090512	10:04	8	prac2	6	9853	10
090512	10:04	8	prac1	7	3291	7
090512	10:04	8	prac6	8	4606	9
090512	10:04	8	real33	1	5405	7
090512	10:04	8	real35	2	2492	7
090512	10:04	8	real79	3	1855	6
090512	10:04	8	real18	4	3218	3
090512	10:04	8	confidence	5	5200	4
090512	10:04	8	real24	6	5590	8
090512	10:04	8	real54	7	6774	5
090512	10:04	8	real48	8	1966	6
090512	10:04	8	real6	9	6189	10
090512	10:04	8	confidence	10	5821	10
090512	10:04	8	real7	11	4227	9
090512	10:04	8	real68	12	5472	4
090512	10:04	8	real38	13	5580	8
090512	10:04	8	real58	14	3068	9
090512	10:04	8	confidence	15	4879	9
090512	10:04	8	real86	16	3723	4
090512	10:04	8	real17	17	2924	4
090512	10:04	8	real71	18	7766	7
090512	10:04	8	real66	19	2679	7
090512	10:04	8	confidence	20	2857	5
090512	10:04	8	real19	21	5165	8
090512	10:04	8	real67	22	4173	6
090512	10:04	8	real32	23	1797	4
090512	10:04	8	real43	24	4562	6
090512	10:04	8	confidence	25	4562	5
090512	10:04	8	real93	26	3954	8
090512	10:04	8	real15	27	7666	10
090512	10:04	8	real16	28	3663	4
090512	10:04	8	real61	29	3491	10
090512	10:04	8	confidence	30	2534	10
090512	10:04	8	real44	31	6318	5
090512	10:04	8	real88	32	6137	4
090512	10:04	8	real69	33	3154	8
090512	10:04	8	real34	34	3058	10
090512	10:04	8	confidence	35	2510	5
090512	10:04	8	real13	36	2928	9
090512	10:04	8	real56	37	2305	9
090512	10:04	8	real80	38	2163	8
090512	10:04	8	real36	39	5386	3
090512	10:04	8	confidence	40	1673	5
090512	10:04	8	real62	41	2652	9
090512	10:04	8	real75	42	2792	8
090512	10:04	8	real39	43	2263	5
090512	10:04	8	real26	44	2842	3
090512	10:04	8	confidence	45	1710	5
090512	10:04	8	real37	46	2960	6
090512	10:04	8	real90	47	3183	8
090512	10:04	8	real72	48	4014	5
090512	10:04	8	real30	49	2236	9
090512	10:04	8	confidence	50	2336	9
090512	10:04	8	real77	51	5736	7
090512	10:04	8	real59	52	2754	5
090512	10:04	8	real73	53	2042	9
090512	10:04	8	real89	54	3374	10
090512	10:04	8	confidence	55	1998	9
090512	10:04	8	real82	56	2323	5
090512	10:04	8	real94	57	2884	8
090512	10:04	8	real64	58	6831	9
090512	10:04	8	real20	59	5141	6
090512	10:04	8	confidence	60	1982	4
090512	10:04	8	real5	61	3605	9
090512	10:04	8	real40	62	3347	8
090512	10:04	8	real22	63	5099	7
090512	10:04	8	real25	64	3142	5
090512	10:04	8	confidence	65	2374	3
090512	10:04	8	real9	66	5910	8
090512	10:04	8	real53	67	2592	5
090512	10:04	8	real60	68	13286	4
090512	10:04	8	real92	69	8612	9
090512	10:04	8	confidence	70	2356	8
090512	10:04	8	real91	71	5483	8
090512	10:04	8	real8	72	2487	7
090512	10:04	8	real4	73	1777	9
090512	10:04	8	real49	74	3384	9
090512	10:04	8	confidence	75	1823	7
090512	10:04	8	real31	76	5051	4
090512	10:04	8	real55	77	4496	9
090512	10:04	8	real14	78	4618	8
090512	10:04	8	real42	79	3112	3
090512	10:04	8	confidence	80	3026	3
090512	10:04	8	real50	81	5319	9
090512	10:04	8	real12	82	3689	9
090512	10:04	8	real11	83	1796	9
090512	10:04	8	real65	84	4266	5
090512	10:04	8	confidence	85	2582	6
090512	10:04	8	real95	86	8236	8
090512	10:04	8	real52	87	3275	7
090512	10:04	8	real78	88	6158	5
090512	10:04	8	real81	89	1535	9
090512	10:04	8	confidence	90	3015	9
090512	10:04	8	real76	91	3900	6
090512	10:04	8	real45	92	10103	7
090512	10:04	8	real29	93	8483	7
090512	10:04	8	real83	94	7911	6
090512	10:04	8	confidence	95	2371	2
090512	10:04	8	real51	96	7026	6
090512	10:04	8	real74	97	2272	8
090512	10:04	8	real1	98	3147	7
090512	10:04	8	real63	99	2699	8
090512	10:04	8	confidence	100	2541	6
090512	10:04	8	real41	101	4629	9
090512	10:04	8	real57	102	2850	5
090512	10:04	8	real70	103	6750	6
090512	10:04	8	real10	104	3392	2
090512	10:04	8	confidence	105	3462	3
090512	10:04	8	real28	106	6130	6
090512	10:04	8	real27	107	2772	5
090512	10:04	8	real84	108	5259	7
090512	10:04	8	real87	109	2215	9
090512	10:04	8	confidence	110	2092	9
090512	10:04	8	real2	111	2646	8
090512	10:04	8	real3	112	4226	4
090512	10:04	8	real21	113	3559	8
090512	10:04	8	real23	114	7120	8
090512	10:04	8	confidence	115	6914	8
090512	10:04	8	real96	116	17341	5
090512	10:04	8	real46	117	1753	9
090512	10:04	8	real47	118	4289	7
090512	10:04	8	real85	119	4332	4
090512	10:04	8	confidence	120	2541	2
090512	10:04	8	followup2	1	42528	2
090512	10:04	8	followup1	2	27879	1
090512	11:13	987	article	1	6524	journal
090512	11:13	987	old	2	4215	man
090512	11:13	987	lost	3	5909	found
090512	11:13	987	prac6	1	13988	8
090512	11:13	987	prac7	2	14910	5
090512	11:13	987	prac8	3	11548	9
090512	11:13	987	prac4	4	11158	7
090512	11:13	987	prac5	5	8201	4
090512	11:13	987	prac1	6	5904	6
090512	11:13	987	prac2	7	5547	8
090512	11:13	987	prac3	8	9476	6
090512	11:13	987	real33	1	9067	8
090512	11:13	987	real35	2	8784	7
090512	11:13	987	real79	3	6473	7
090512	11:13	987	real18	4	5253	9
090512	11:13	987	confidence	5	9498	8
090512	11:13	987	real24	6	13126	9
090512	11:13	987	real54	7	7490	7
090512	11:13	987	real48	8	9902	6
090512	11:13	987	real6	9	6002	9
090512	11:13	987	confidence	10	6521	9
090512	11:13	987	real7	11	7420	9
090512	11:13	987	real68	12	5539	6
090512	11:13	987	real38	13	4612	8
090512	11:13	987	real58	14	3986	8
090512	11:13	987	confidence	15	2369	8
090512	11:13	987	real86	16	10856	5
090512	11:13	987	real17	17	7334	8
090512	11:13	987	real71	18	2985	8
090512	11:13	987	real66	19	10183	5
090512	11:13	987	confidence	20	4888	5
090512	11:13	987	real19	21	3700	9
090512	11:13	987	real67	22	3254	9
090512	11:13	987	real32	23	6946	7
090512	11:13	987	real43	24	5867	7
090512	11:13	987	confidence	25	4136	6
090512	11:13	987	real93	26	3360	8
090512	11:13	987	real15	27	9368	4
090512	11:13	987	real16	28	4889	8
090512	11:13	987	real61	29	3061	9
090512	11:13	987	confidence	30	2776	9
090512	11:13	987	real44	31	6359	7
090512	11:13	987	real88	32	16352	9
090512	11:13	987	real69	33	2372	8
090512	11:13	987	real34	34	5171	8
090512	11:13	987	confidence	35	1955	8
090512	11:13	987	real13	36	6419	7
090512	11:13	987	real56	37	12162	7
090512	11:13	987	real80	38	2908	9
090512	11:13	987	real36	39	2638	4
090512	11:13	987	confidence	40	4770	7
090512	11:13	987	real62	41	3882	8
090512	11:13	987	real75	42	2053	8
090512	11:13	987	real39	43	9113	7
090512	11:13	987	real26	44	5228	8
090512	11:13	987	confidence	45	3690	7
090512	11:13	987	real37	46	12204	9
090512	11:13	987	real90	47	2350	8
090512	11:13	987	real72	48	4534	4
090512	11:13	987	real30	49	2487	8
090512	11:13	987	confidence	50	16559	10
090512	11:13	987	real77	51	6453	9
090512	11:13	987	real59	52	7442	6
090512	11:13	987	real73	53	3431	9
090512	11:13	987	real89	54	2428	8
090512	11:13	987	confidence	55	3919	10
090512	11:13	987	real82	56	7770	5
090512	11:13	987	real94	57	7715	8
090512	11:13	987	real64	58	4238	9
090512	11:13	987	real20	59	5323	8
090512	11:13	987	confidence	60	7317	6
090512	11:13	987	real5	61	2976	9
090512	11:13	987	real40	62	3879	9
090512	11:13	987	real22	63	4266	3
090512	11:13	987	real25	64	3581	4
090512	11:13	987	confidence	65	5892	6
090512	11:13	987	real9	66	6296	8
090512	11:13	987	real53	67	9939	5
090512	11:13	987	real60	68	2302	5
090512	11:13	987	real92	69	2432	8
090512	11:13	987	confidence	70	3651	10
090512	11:13	987	real91	71	5568	8
090512	11:13	987	real8	72	5369	8
090512	11:13	987	real4	73	2065	9
090512	11:13	987	real49	74	6364	5
090512	11:13	987	confidence	75	3140	6
090512	11:13	987	real31	76	8077	7
090512	11:13	987	real55	77	2321	9
090512	11:13	987	real14	78	1650	9
090512	11:13	987	real42	79	3582	7
090512	11:13	987	confidence	80	2413	6
090512	11:13	987	real50	81	3778	9
090512	11:13	987	real12	82	4697	8
090512	11:13	987	real11	83	6091	8
090512	11:13	987	real65	84	2727	7
090512	11:13	987	confidence	85	2840	6
090512	11:13	987	real95	86	5396	8
090512	11:13	987	real52	87	3995	7
090512	11:13	987	real78	88	3794	8
090512	11:13	987	real81	89	1752	9
090512	11:13	987	confidence	90	2813	10
090512	11:13	987	real76	91	4141	8
090512	11:13	987	real45	92	2485	8
090512	11:13	987	real29	93	1656	9
090512	11:13	987	real83	94	2460	9
090512	11:13	987	confidence	95	1589	10
090512	11:13	987	real51	96	3229	7
090512	11:13	987	real74	97	1434	9
090512	11:13	987	real1	98	5126	8
090512	11:13	987	real63	99	3015	7
090512	11:13	987	confidence	100	1989	6
090512	11:13	987	real41	101	1834	9
090512	11:13	987	real57	102	3679	7
090512	11:13	987	real70	103	3970	8
090512	11:13	987	real10	104	4954	5
090512	11:13	987	confidence	105	3337	10
090512	11:13	987	real28	106	5067	8
090512	11:13	987	real27	107	3535	8
090512	11:13	987	real84	108	1496	9
090512	11:13	987	real87	109	1570	9
090512	11:13	987	confidence	110	3855	10
090512	11:13	987	real2	111	2861	7
090512	11:13	987	real3	112	4088	7
090512	11:13	987	real21	113	1603	9
090512	11:13	987	real23	114	2849	8
090512	11:13	987	confidence	115	2909	6
090512	11:13	987	real96	116	3399	7
090512	11:13	987	real46	117	1245	9
090512	11:13	987	real47	118	2311	8
090512	11:13	987	real85	119	1489	9
090512	11:13	987	confidence	120	3012	6
090512	11:13	987	followup1	1	29630	3
090512	11:13	987	followup2	2	25652	1
090612	09:04	8	old	1	7485	new
090612	09:04	8	article	2	8722	news
090612	09:04	8	lost	3	3502	found
090612	09:04	8	prac7	1	12585	2
090612	09:04	8	prac5	2	12435	3
090612	09:04	8	prac2	3	12347	10
090612	09:04	8	prac3	4	5206	2
090612	09:04	8	prac6	5	13412	7
090612	09:10	6	lost	1	3507	found
090612	09:10	6	old	2	1942	new
090612	09:10	6	article	3	1863	news
090612	09:10	6	prac4	1	6238	5
090612	09:10	6	prac6	2	5915	8
090612	09:10	6	prac7	3	5854	2
090612	09:10	6	prac1	4	6706	3
090612	09:10	6	prac2	5	5310	10
090612	09:10	6	prac3	6	5736	2
090612	09:10	6	prac8	7	7713	9
090612	09:10	6	prac5	8	4484	3
090612	09:10	6	real33	1	6030	8
090612	09:10	6	real35	2	7508	8
090612	09:10	6	real79	3	6519	5
090612	09:10	6	real18	4	5194	8
090612	09:10	6	confidence	5	10120	7
090612	09:10	6	real24	6	4188	9
090612	09:10	6	real54	7	4875	7
090612	09:10	6	real48	8	7143	5
090612	09:10	6	real6	9	4088	10
090612	09:10	6	confidence	10	5019	10
090612	09:10	6	real7	11	4209	9
090612	09:10	6	real68	12	5223	9
090612	09:10	6	real38	13	6093	10
090612	09:10	6	real58	14	10368	7
090612	09:10	6	confidence	15	3714	3
090612	09:10	6	real86	16	7804	6
090612	09:10	6	real17	17	8243	10
090612	09:10	6	real71	18	3953	8
090612	09:10	6	real66	19	4289	9
090612	09:10	6	confidence	20	3396	7
090612	09:10	6	real19	21	2394	10
090612	09:10	6	real67	22	3400	10
090612	09:10	6	real32	23	4510	7
090612	09:10	6	real43	24	5688	4
090612	09:10	6	confidence	25	3820	4
090612	09:10	6	real93	26	6529	7
090612	09:10	6	real15	27	7875	6
090612	09:10	6	real16	28	4543	8
090612	09:10	6	real61	29	2528	10
090612	09:10	6	confidence	30	3808	10
090612	09:10	6	real44	31	4911	6
090612	09:10	6	real88	32	3705	7
090612	09:10	6	real69	33	2411	10
090612	09:10	6	real34	34	4440	9
090612	09:10	6	confidence	35	2149	8
090612	09:10	6	real13	36	7893	5
090612	09:10	6	real56	37	2288	10
090612	09:10	6	real80	38	2827	10
090612	09:10	6	real36	39	3215	5
090612	09:10	6	confidence	40	2965	3
090612	09:10	6	real62	41	6036	5
090612	09:10	6	real75	42	5138	9
090612	09:10	6	real39	43	7427	7
090612	09:10	6	real26	44	4697	4
090612	09:10	6	confidence	45	2332	6
090612	09:10	6	real37	46	4220	7
090612	09:10	6	real90	47	3202	9
090612	09:10	6	real72	48	5288	6
090612	09:10	6	real30	49	2755	9
090612	09:10	6	confidence	50	2140	7
090612	09:10	6	real77	51	2516	10
090612	09:10	6	real59	52	5013	6
090612	09:10	6	real73	53	1947	10
090612	09:10	6	real89	54	6355	7
090612	09:10	6	confidence	55	1996	6
090612	09:10	6	real82	56	5121	6
090612	09:10	6	real94	57	2732	7
090612	09:10	6	real64	58	4124	7
090612	09:10	6	real20	59	2758	9
090612	09:10	6	confidence	60	2078	8
090612	09:10	6	real5	61	2816	9
090612	09:10	6	real40	62	5813	6
090612	09:10	6	real22	63	5931	6
090612	09:10	6	real25	64	3077	7
090612	09:10	6	confidence	65	2216	6
090612	09:10	6	real9	66	2061	8
090612	09:10	6	real53	67	4136	4
090612	09:10	6	real60	68	3793	6
090612	09:10	6	real92	69	2975	9
090612	09:10	6	confidence	70	1942	8
090612	09:10	6	real91	71	3991	7
090612	09:10	6	real8	72	4190	3
090612	09:10	6	real4	73	2757	10
090612	09:10	6	real49	74	2717	9
090612	09:10	6	confidence	75	1574	8
090612	09:10	6	real31	76	3005	4
090612	09:10	6	real55	77	1931	10
090612	09:10	6	real14	78	3179	8
090612	09:10	6	real42	79	5322	5
090612	09:10	6	confidence	80	1972	4
090612	09:10	6	real50	81	1819	10
090612	09:10	6	real12	82	4544	9
090612	09:10	6	real11	83	1625	9
090612	09:10	6	real65	84	4333	5
090612	09:10	6	confidence	85	1495	1
090612	09:10	6	real95	86	2800	6
090612	09:10	6	real52	87	3686	3
090612	09:10	6	real78	88	4201	5
090612	09:10	6	real81	89	1839	10
090612	09:10	6	confidence	90	2084	7
090612	09:10	6	real76	91	6558	7
090612	09:10	6	real45	92	4183	6
090612	09:10	6	real29	93	1750	9
090612	09:10	6	real83	94	2694	8
090612	09:10	6	confidence	95	1696	6
090612	09:10	6	real51	96	4153	6
090612	09:10	6	real74	97	2033	9
090612	09:10	6	real1	98	4494	5
090612	09:10	6	real63	99	3832	3
090612	09:10	6	confidence	100	4461	2
090612	09:10	6	real41	101	4001	9
090612	09:10	6	real57	102	5071	8
090612	09:10	6	real70	103	4843	8
090612	09:10	6	real10	104	2720	3
090612	09:10	6	confidence	105	1721	2
090612	09:10	6	real28	106	5138	5
090612	09:10	6	real27	107	4275	3
090612	09:10	6	real84	108	3223	6
090612	09:10	6	real87	109	1724	10
090612	09:10	6	confidence	110	1573	8
090612	09:10	6	real2	111	4308	7
090612	09:10	6	real3	112	6326	4
090612	09:10	6	real21	113	2088	9
090612	09:10	6	real23	114	2754	10
090612	09:10	6	confidence	115	1786	7
090612	09:10	6	real96	116	4040	6
090612	09:10	6	real46	117	1726	10
090612	09:10	6	real47	118	3679	9
090612	09:10	6	real85	119	2746	10
090612	09:10	6	confidence	120	1529	8
090612	09:10	6	followup1	1	21475	3
090612	09:10	6	followup2	2	17229	1
091012	11:53	6561	article	1	18032	clothing
091012	11:53	6561	lost	2	9467	and found
091012	11:53	6561	old	3	10529	news
091012	11:53	6561	prac4	1	13692	3
091012	11:53	6561	prac7	2	10826	2
091012	11:53	6561	prac2	3	7409	6
091012	11:53	6561	prac1	4	21528	1
091012	11:53	6561	prac3	5	8231	2
091012	11:53	6561	prac5	6	4085	1
091012	11:53	6561	prac8	7	4864	7
091012	11:53	6561	prac6	8	3796	7
091012	11:53	6561	real33	1	28745	1
091012	11:53	6561	real35	2	9026	2
091012	11:53	6561	real79	3	7777	3
091012	11:53	6561	real18	4	4641	5
091012	11:53	6561	confidence	5	10630	5
091012	11:53	6561	real24	6	15157	7
091012	11:53	6561	real54	7	10953	2
091012	11:53	6561	real48	8	8866	3
091012	11:53	6561	real6	9	8305	8
091012	11:53	6561	confidence	10	14380	7
091012	11:53	6561	real7	11	7327	5
091012	11:53	6561	real68	12	8441	7
091012	11:53	6561	real38	13	7270	7
091012	11:53	6561	real58	14	4084	8
091012	11:53	6561	confidence	15	7110	7
091012	11:53	6561	real86	16	7393	3
091012	11:53	6561	real17	17	7457	7
091012	11:53	6561	real71	18	4150	8
091012	11:53	6561	real66	19	4791	8
091012	11:53	6561	confidence	20	2918	7
091012	11:53	6561	real19	21	34374	10
091012	11:53	6561	real67	22	10960	10
091012	11:53	6561	real32	23	4778	7
091012	11:53	6561	real43	24	2890	3
091012	11:53	6561	confidence	25	2052	7
091012	11:53	6561	real93	26	7344	5
091012	11:53	6561	real15	27	7745	4
091012	11:53	6561	real16	28	4955	3
091012	11:53	6561	real61	29	2651	8
091012	11:53	6561	confidence	30	3847	7
091012	11:53	6561	real44	31	8395	4
091012	11:53	6561	real88	32	3043	3
091012	11:53	6561	real69	33	4511	10
091012	11:53	6561	real34	34	5593	8
091012	11:53	6561	confidence	35	1808	7
091012	11:53	6561	real13	36	8525	2
091012	11:53	6561	real56	37	4352	10
091012	11:53	6561	real80	38	17416	8
091012	11:53	6561	real36	39	7290	3
091012	11:53	6561	confidence	40	2615	7
091012	11:53	6561	real62	41	7396	8
091012	11:53	6561	real75	42	5923	9
091012	11:53	6561	real39	43	5350	7
091012	11:53	6561	real26	44	3542	3
091012	11:53	6561	confidence	45	7687	7
091012	11:53	6561	real37	46	8587	5
091012	11:53	6561	real90	47	3388	7
091012	11:53	6561	real72	48	6331	3
091012	11:53	6561	real30	49	5908	8
091012	11:53	6561	confidence	50	4831	8
091012	11:53	6561	real77	51	3684	8
091012	11:53	6561	real59	52	7935	3
091012	11:53	6561	real73	53	2961	7
091012	11:53	6561	real89	54	9472	2
091012	11:53	6561	confidence	55	4846	7
091012	11:53	6561	real82	56	8818	2
091012	11:53	6561	real94	57	8866	8
091012	11:53	6561	real64	58	9135	4
091012	11:53	6561	real20	59	5802	8
091012	11:53	6561	confidence	60	8904	7
091012	11:53	6561	real5	61	14964	7
091012	11:53	6561	real40	62	6024	3
091012	11:53	6561	real22	63	4022	3
091012	11:53	6561	real25	64	6380	3
091012	11:53	6561	confidence	65	1588	7
091012	11:53	6561	real9	66	4946	7
091012	11:53	6561	real53	67	9778	1
091012	11:53	6561	real60	68	7019	1
091012	11:53	6561	real92	69	3250	3
091012	11:53	6561	confidence	70	1350	7
091012	11:53	6561	real91	71	7846	3
091012	11:53	6561	real8	72	2059	1
091012	11:53	6561	real4	73	2839	6
091012	11:53	6561	real49	74	3019	6
091012	11:53	6561	confidence	75	3089	7
091012	11:53	6561	real31	76	6059	5
091012	11:53	6561	real55	77	4008	6
091012	11:53	6561	real14	78	4086	7
091012	11:53	6561	real42	79	4473	2
091012	11:53	6561	confidence	80	3989	7
091012	11:53	6561	real50	81	6276	6
091012	11:53	6561	real12	82	3904	2
091012	11:53	6561	real11	83	10050	4
091012	11:53	6561	real65	84	4304	3
091012	11:53	6561	confidence	85	3179	7
091012	11:53	6561	real95	86	7841	3
091012	11:53	6561	real52	87	11247	3
091012	11:53	6561	real78	88	9478	2
091012	11:53	6561	real81	89	6106	5
091012	11:53	6561	confidence	90	1526	7
091012	11:53	6561	real76	91	6639	8
091012	11:53	6561	real45	92	3540	8
091012	11:53	6561	real29	93	3237	7
091012	11:53	6561	real83	94	3962	3
091012	11:53	6561	confidence	95	1378	7
091012	11:53	6561	real51	96	5064	3
091012	11:53	6561	real74	97	2764	8
091012	11:53	6561	real1	98	2291	2
091012	11:53	6561	real63	99	5638	1
091012	11:53	6561	confidence	100	2203	7
091012	11:53	6561	real41	101	17712	2
091012	11:53	6561	real57	102	3655	3
091012	11:53	6561	real70	103	4483	2
091012	11:53	6561	real10	104	3550	1
091012	11:53	6561	confidence	105	4382	9
091012	11:53	6561	real28	106	9469	8
091012	11:53	6561	real27	107	4403	6
091012	11:53	6561	real84	108	4345	1
091012	11:53	6561	real87	109	5098	2
091012	11:53	6561	confidence	110	2565	7
091012	11:53	6561	real2	111	2900	1
091012	11:53	6561	real3	112	10438	3
091012	11:53	6561	real21	113	3285	7
091012	11:53	6561	real23	114	4048	5
091012	11:53	6561	confidence	115	1828	7
091012	11:53	6561	real96	116	3904	1
091012	11:53	6561	real46	117	3035	8
091012	11:53	6561	real47	118	5815	6
091012	11:53	6561	real85	119	5294	4
091012	11:53	6561	confidence	120	1664	7
091012	11:53	6561	followup1	1	38217	3
091012	11:53	6561	followup2	2	38946	1
091012	13:03	54	old	1	17364	glasses 
091012	13:03	54	lost	2	17760	unknown
091012	13:03	54	article	3	6350	newspaper
091012	13:03	54	prac4	1	7742	5
091012	13:03	54	prac1	2	4551	6
091012	13:03	54	prac7	3	6696	6
091012	13:03	54	prac8	4	3267	6
091012	13:03	54	prac5	5	7495	6
091012	13:03	54	prac6	6	4962	5
091012	13:03	54	prac2	7	5434	7
091012	13:03	54	prac3	8	6591	6
091012	13:03	54	real33	1	5216	6
091012	13:03	54	real35	2	4494	5
091012	13:03	54	real79	3	6048	5
091012	13:03	54	real18	4	3629	7
091012	13:03	54	confidence	5	7882	7
091012	13:03	54	real24	6	6166	7
091012	13:03	54	real54	7	7534	7
091012	13:03	54	real48	8	8201	6
091012	13:03	54	real6	9	7001	6
091012	13:03	54	confidence	10	8368	6
091012	13:03	54	real7	11	5457	8
091012	13:03	54	real68	12	4246	7
091012	13:03	54	real38	13	7570	8
091012	13:03	54	real58	14	4851	6
091012	13:03	54	confidence	15	6384	6
091012	13:03	54	real86	16	7407	7
091012	13:03	54	real17	17	6783	6
091012	13:03	54	real71	18	7511	7
091012	13:03	54	real66	19	6729	6
091012	13:03	54	confidence	20	5563	7
091012	13:03	54	real19	21	4260	8
091012	13:03	54	real67	22	5135	8
091012	13:03	54	real32	23	6481	6
091012	13:03	54	real43	24	9429	7
091012	13:03	54	confidence	25	3419	7
091012	13:03	54	real93	26	9817	7
091012	13:03	54	real15	27	6073	6
091012	13:03	54	real16	28	6509	5
091012	13:03	54	real61	29	4847	6
091012	13:03	54	confidence	30	2796	7
091012	13:03	54	real44	31	6378	4
091012	13:03	54	real88	32	5145	5
091012	13:03	54	real69	33	4490	4
091012	13:03	54	real34	34	5517	8
091012	13:03	54	confidence	35	2144	7
091012	13:03	54	real13	36	9280	4
091012	13:03	54	real56	37	2501	6
091012	13:03	54	real80	38	2359	8
091012	13:03	54	real36	39	4039	7
091012	13:03	54	confidence	40	2939	6
091012	13:03	54	real62	41	5740	6
091012	13:03	54	real75	42	10125	5
091012	13:03	54	real39	43	9153	7
091012	13:03	54	real26	44	4043	4
091012	13:03	54	confidence	45	3783	5
091012	13:03	54	real37	46	9038	5
091012	13:03	54	real90	47	6452	7
091012	13:03	54	real72	48	6906	7
091012	13:03	54	real30	49	4501	6
091012	13:03	54	confidence	50	3408	6
091012	13:03	54	real77	51	4525	8
091012	13:03	54	real59	52	4367	5
091012	13:03	54	real73	53	5966	6
091012	13:03	54	real89	54	7927	8
091012	13:03	54	confidence	55	3352	7
091012	13:03	54	real82	56	16929	5
091012	13:03	54	real94	57	2367	8
091012	13:03	54	real64	58	5510	8
091012	13:03	54	real20	59	7144	6
091012	13:03	54	confidence	60	3441	6
091012	13:03	54	real5	61	3078	7
091012	13:03	54	real40	62	7633	5
091012	13:03	54	real22	63	10383	6
091012	13:03	54	real25	64	5880	7
091012	13:03	54	confidence	65	2220	7
091012	13:03	54	real9	66	11600	8
091012	13:03	54	real53	67	7066	4
091012	13:03	54	real60	68	5686	6
091012	13:03	54	real92	69	5129	8
091012	13:03	54	confidence	70	2699	7
091012	13:03	54	real91	71	9093	6
091012	13:03	54	real8	72	7537	3
091012	13:03	54	real4	73	5739	5
091012	13:03	54	real49	74	5981	8
091012	13:03	54	confidence	75	2453	7
091012	13:03	54	real31	76	8272	7
091012	13:03	54	real55	77	3221	7
091012	13:03	54	real14	78	6283	8
091012	13:03	54	real42	79	6383	5
091012	13:03	54	confidence	80	2774	6
091012	13:03	54	real50	81	6989	8
091012	13:03	54	real12	82	5182	8
091012	13:03	54	real11	83	8613	7
091012	13:03	54	real65	84	10148	4
091012	13:03	54	confidence	85	1759	5
091012	13:03	54	real95	86	6294	8
091012	13:03	54	real52	87	13145	7
091012	13:03	54	real78	88	6660	5
091012	13:03	54	real81	89	5649	8
091012	13:03	54	confidence	90	2350	7
091012	13:03	54	real76	91	11518	6
091012	13:03	54	real45	92	7346	7
091012	13:03	54	real29	93	6835	5
091012	13:03	54	real83	94	8193	6
091012	13:03	54	confidence	95	1977	6
091012	13:03	54	real51	96	8632	7
091012	13:03	54	real74	97	7502	8
091012	13:03	54	real1	98	5378	7
091012	13:03	54	real63	99	8121	5
091012	13:03	54	confidence	100	2580	6
091012	13:03	54	real41	101	8579	7
091012	13:03	54	real57	102	8787	6
091012	13:03	54	real70	103	8748	7
091012	13:03	54	real10	104	5566	3
091012	13:03	54	confidence	105	3046	7
091012	13:03	54	real28	106	6122	7
091012	13:03	54	real27	107	7300	4
091012	13:03	54	real84	108	3992	7
091012	13:03	54	real87	109	3063	7
091012	13:03	54	confidence	110	2362	6
091012	13:03	54	real2	111	8201	7
091012	13:03	54	real3	112	6241	4
091012	13:03	54	real21	113	4583	8
091012	13:03	54	real23	114	5766	8
091012	13:03	54	confidence	115	2230	7
091012	13:03	54	real96	116	8547	5
091012	13:03	54	real46	117	2789	8
091012	13:03	54	real47	118	3243	8
091012	13:03	54	real85	119	5735	8
091012	13:03	54	confidence	120	1857	7
091012	13:03	54	followup1	1	14500	3
091012	13:03	54	followup2	2	19762	1
091012	13:58	4564561569	lost	1	9978	found
091012	13:58	4564561569	article	2	6348	newspaper
091012	13:58	4564561569	old	3	5430	new
091012	13:58	4564561569	prac2	1	136633	10
091012	13:58	4564561569	prac7	2	19387	2
091012	13:58	4564561569	prac1	3	5615	3
091012	13:58	4564561569	prac4	4	5886	5
091012	13:58	4564561569	prac8	5	6705	6
091012	13:58	4564561569	prac6	6	5212	4
091012	13:58	4564561569	prac3	7	3611	3
091012	13:58	4564561569	prac5	8	3168	1
091012	13:58	4564561569	real33	1	9058	5
091012	13:58	4564561569	real35	2	6639	6
091012	13:58	4564561569	real79	3	1525	3
091012	13:58	4564561569	real18	4	2550	8
091012	13:58	4564561569	confidence	5	5782	10
091012	13:58	4564561569	real24	6	13885	7
091012	13:58	4564561569	real54	7	5684	4
091012	13:58	4564561569	real48	8	5999	3
091012	13:58	4564561569	real6	9	1847	10
091012	13:58	4564561569	confidence	10	1706	10
091012	13:58	4564561569	real7	11	2260	9
091012	13:58	4564561569	real68	12	1655	10
091012	13:58	4564561569	real38	13	1642	10
091012	13:58	4564561569	real58	14	1079	10
091012	13:58	4564561569	confidence	15	960	10
091012	13:58	4564561569	real86	16	1616	9
091012	13:58	4564561569	real17	17	1229	10
091012	13:58	4564561569	real71	18	848	10
091012	13:58	4564561569	real66	19	1332	10
091012	13:58	4564561569	confidence	20	796	10
091012	13:58	4564561569	real19	21	1121	10
091012	13:58	4564561569	real67	22	2609	9
091012	13:58	4564561569	real32	23	2686	7
091012	13:58	4564561569	real43	24	2986	5
091012	13:58	4564561569	confidence	25	2369	6
091012	13:58	4564561569	real93	26	1952	4
091012	13:58	4564561569	real15	27	3728	3
091012	13:58	4564561569	real16	28	1377	9
091012	13:58	4564561569	real61	29	1255	10
091012	13:58	4564561569	confidence	30	875	10
091012	13:58	4564561569	real44	31	3805	7
091012	13:58	4564561569	real88	32	4060	5
091012	13:58	4564561569	real69	33	8135	8
091012	13:58	4564561569	real34	34	5874	9
091012	13:58	4564561569	confidence	35	1709	10
091012	13:58	4564561569	real13	36	5559	9
091012	13:58	4564561569	real56	37	1248	10
091012	13:58	4564561569	real80	38	1115	10
091012	13:58	4564561569	real36	39	1620	5
091012	13:58	4564561569	confidence	40	1545	6
091012	13:58	4564561569	real62	41	1896	9
091012	13:58	4564561569	real75	42	5338	9
091012	13:58	4564561569	real39	43	3691	6
091012	13:58	4564561569	real26	44	5526	5
091012	13:58	4564561569	confidence	45	2896	10
091012	13:58	4564561569	real37	46	4322	6
091012	13:58	4564561569	real90	47	1860	10
091012	13:58	4564561569	real72	48	2495	9
091012	13:58	4564561569	real30	49	1601	10
091012	13:58	4564561569	confidence	50	967	10
091012	13:58	4564561569	real77	51	1317	10
091012	13:58	4564561569	real59	52	2598	10
091012	13:58	4564561569	real73	53	2100	10
091012	13:58	4564561569	real89	54	3414	10
091012	13:58	4564561569	confidence	55	587	10
091012	13:58	4564561569	real82	56	8361	9
091012	13:58	4564561569	real94	57	1258	10
091012	13:58	4564561569	real64	58	4437	9
091012	13:58	4564561569	real20	59	987	10
091012	13:58	4564561569	confidence	60	1128	10
091012	13:58	4564561569	real5	61	2865	10
091012	13:58	4564561569	real40	62	3748	9
091012	13:58	4564561569	real22	63	3012	8
091012	13:58	4564561569	real25	64	3553	9
091012	13:58	4564561569	confidence	65	970	10
091012	13:58	4564561569	real9	66	3664	10
091012	13:58	4564561569	real53	67	6172	9
091012	13:58	4564561569	real60	68	8940	9
091012	13:58	4564561569	real92	69	10527	10
091012	13:58	4564561569	confidence	70	450	10
091012	13:58	4564561569	real91	71	5525	4
091012	13:58	4564561569	real8	72	2911	3
091012	13:58	4564561569	real4	73	1800	10
091012	13:58	4564561569	real49	74	1814	10
091012	13:58	4564561569	confidence	75	403	10
091012	13:58	4564561569	real31	76	6256	4
091012	13:58	4564561569	real55	77	4301	10
091012	13:58	4564561569	real14	78	14503	6
091012	13:58	4564561569	real42	79	7581	7
091012	13:58	4564561569	confidence	80	3892	1
091012	13:58	4564561569	real50	81	1104	10
091012	13:58	4564561569	real12	82	1402	10
091012	13:58	4564561569	real11	83	2831	9
091012	13:58	4564561569	real65	84	2276	9
091012	13:58	4564561569	confidence	85	1687	10
091012	13:58	4564561569	real95	86	6201	6
091012	13:58	4564561569	real52	87	1536	10
091012	13:58	4564561569	real78	88	1912	9
091012	13:58	4564561569	real81	89	1281	10
091012	13:58	4564561569	confidence	90	459	10
091012	13:58	4564561569	real76	91	1911	9
091012	13:58	4564561569	real45	92	2039	10
091012	13:58	4564561569	real29	93	1452	10
091012	13:58	4564561569	real83	94	1887	8
091012	13:58	4564561569	confidence	95	2234	6
091012	13:58	4564561569	real51	96	2630	10
091012	13:58	4564561569	real74	97	907	10
091012	13:58	4564561569	real1	98	3692	9
091012	13:58	4564561569	real63	99	5535	8
091012	13:58	4564561569	confidence	100	2368	6
091012	13:58	4564561569	real41	101	1112	10
091012	13:58	4564561569	real57	102	5104	9
091012	13:58	4564561569	real70	103	8979	10
091012	13:58	4564561569	real10	104	11971	6
091012	13:58	4564561569	confidence	105	2638	10
091012	13:58	4564561569	real28	106	2938	10
091012	13:58	4564561569	real27	107	1459	10
091012	13:58	4564561569	real84	108	1807	9
091012	13:58	4564561569	real87	109	940	10
091012	13:58	4564561569	confidence	110	756	10
091012	13:58	4564561569	real2	111	7507	9
091012	13:58	4564561569	real3	112	19086	8
091012	13:58	4564561569	real21	113	1599	10
091012	13:58	4564561569	real23	114	812	10
091012	13:58	4564561569	confidence	115	3497	10
091012	13:58	4564561569	real96	116	6147	8
091012	13:58	4564561569	real46	117	1668	10
091012	13:58	4564561569	real47	118	4415	7
091012	13:58	4564561569	real85	119	2373	9
091012	13:58	4564561569	confidence	120	4540	10
091012	13:58	4564561569	followup1	1	10597	3
091012	13:58	4564561569	followup2	2	21109	1
091112	11:53	9814654	article	1	10186	newspaper
091112	11:53	9814654	old	2	7748	people
091112	11:53	9814654	lost	3	5822	treasure
091112	11:53	9814654	prac6	1	10094	8
091112	11:53	9814654	prac2	2	9779	8
091112	11:53	9814654	prac5	3	6203	6
091112	11:53	9814654	prac7	4	7035	4
091112	11:53	9814654	prac3	5	3840	5
091112	11:53	9814654	prac1	6	5549	3
091112	11:53	9814654	prac4	7	9606	3
091112	11:53	9814654	prac8	8	4567	8
091112	11:53	9814654	real33	1	6058	6
091112	11:53	9814654	real35	2	3895	7
091112	11:53	9814654	real79	3	3978	3
091112	11:53	9814654	real18	4	4177	7
091112	11:53	9814654	confidence	5	7944	8
091112	11:53	9814654	real24	6	5401	8
091112	11:53	9814654	real54	7	5008	6
091112	11:53	9814654	real48	8	8535	7
091112	11:53	9814654	real6	9	22441	9
091112	11:53	9814654	confidence	10	6532	9
091112	11:53	9814654	real7	11	6446	8
091112	11:53	9814654	real68	12	4603	9
091112	11:53	9814654	real38	13	6137	9
091112	11:53	9814654	real58	14	3955	8
091112	11:53	9814654	confidence	15	7211	8
091112	11:53	9814654	real86	16	8082	7
091112	11:53	9814654	real17	17	3550	8
091112	11:53	9814654	real71	18	4022	9
091112	11:53	9814654	real66	19	4836	8
091112	11:53	9814654	confidence	20	4009	7
091112	11:53	9814654	real19	21	4616	9
091112	11:53	9814654	real67	22	12781	9
091112	11:53	9814654	real32	23	4527	7
091112	11:53	9814654	real43	24	3120	7
091112	11:53	9814654	confidence	25	3778	6
091112	11:53	9814654	real93	26	5969	7
091112	11:53	9814654	real15	27	10433	4
091112	11:53	9814654	real16	28	4336	7
091112	11:53	9814654	real61	29	6194	9
091112	11:53	9814654	confidence	30	4376	9
091112	11:53	9814654	real44	31	4208	7
091112	11:53	9814654	real88	32	6247	8
091112	11:53	9814654	real69	33	4716	8
091112	11:53	9814654	real34	34	3654	9
091112	11:53	9814654	confidence	35	3402	9
091112	11:53	9814654	real13	36	12256	6
091112	11:53	9814654	real56	37	9391	8
091112	11:53	9814654	real80	38	2143	9
091112	11:53	9814654	real36	39	4055	5
091112	11:53	9814654	confidence	40	3348	7
091112	11:53	9814654	real62	41	6348	8
091112	11:53	9814654	real75	42	3997	9
091112	11:53	9814654	real39	43	4947	7
091112	11:53	9814654	real26	44	15628	9
091112	11:53	9814654	confidence	45	4581	9
091112	11:53	9814654	real37	46	5932	8
091112	11:53	9814654	real90	47	10550	6
091112	11:53	9814654	real72	48	4968	9
091112	11:53	9814654	real30	49	7240	9
091112	11:53	9814654	confidence	50	5046	10
091112	11:53	9814654	real77	51	4899	10
091112	11:53	9814654	real59	52	6558	9
091112	11:53	9814654	real73	53	4135	10
091112	11:53	9814654	real89	54	2680	9
091112	11:53	9814654	confidence	55	3946	9
091112	11:53	9814654	real82	56	5738	8
091112	11:53	9814654	real94	57	3684	9
091112	11:53	9814654	real64	58	17455	8
091112	11:53	9814654	real20	59	6631	5
091112	11:53	9814654	confidence	60	1893	7
091112	11:53	9814654	real5	61	3415	10
091112	11:53	9814654	real40	62	3621	9
091112	11:53	9814654	real22	63	6674	5
091112	11:53	9814654	real25	64	13423	2
091112	11:53	9814654	confidence	65	2415	8
091112	11:53	9814654	real9	66	6276	7
091112	11:53	9814654	real53	67	4760	1
091112	11:53	9814654	real60	68	10608	5
091112	11:53	9814654	real92	69	3608	10
091112	11:53	9814654	confidence	70	2574	9
091112	11:53	9814654	real91	71	7101	5
091112	11:53	9814654	real8	72	5152	4
091112	11:53	9814654	real4	73	3945	10
091112	11:53	9814654	real49	74	7577	9
091112	11:53	9814654	confidence	75	2625	9
091112	11:53	9814654	real31	76	4863	5
091112	11:53	9814654	real55	77	3219	10
091112	11:53	9814654	real14	78	4584	9
091112	11:53	9814654	real42	79	9175	5
091112	11:53	9814654	confidence	80	3872	7
091112	11:53	9814654	real50	81	2788	10
091112	11:53	9814654	real12	82	3962	8
091112	11:53	9814654	real11	83	3890	9
091112	11:53	9814654	real65	84	4477	7
091112	11:53	9814654	confidence	85	1488	8
091112	11:53	9814654	real95	86	2946	8
091112	11:53	9814654	real52	87	1842	9
091112	11:53	9814654	real78	88	6454	8
091112	11:53	9814654	real81	89	4403	10
091112	11:53	9814654	confidence	90	1458	9
091112	11:53	9814654	real76	91	4901	8
091112	11:53	9814654	real45	92	5632	8
091112	11:53	9814654	real29	93	4054	10
091112	11:53	9814654	real83	94	3762	8
091112	11:53	9814654	confidence	95	1042	9
091112	11:53	9814654	real51	96	6166	6
091112	11:53	9814654	real74	97	5534	10
091112	11:53	9814654	real1	98	4311	8
091112	11:53	9814654	real63	99	2065	9
091112	11:53	9814654	confidence	100	1556	9
091112	11:53	9814654	real41	101	5492	10
091112	11:53	9814654	real57	102	2727	8
091112	11:53	9814654	real70	103	1272	9
091112	11:53	9814654	real10	104	4267	2
091112	11:53	9814654	confidence	105	1782	8
091112	11:53	9814654	real28	106	6021	9
091112	11:53	9814654	real27	107	7803	7
091112	11:53	9814654	real84	108	2738	9
091112	11:53	9814654	real87	109	3195	10
091112	11:53	9814654	confidence	110	3153	10
091112	11:53	9814654	real2	111	8897	7
091112	11:53	9814654	real3	112	4229	7
091112	11:53	9814654	real21	113	3842	10
091112	11:53	9814654	real23	114	3647	10
091112	11:53	9814654	confidence	115	2571	10
091112	11:53	9814654	real96	116	7211	5
091112	11:53	9814654	real46	117	3330	10
091112	11:53	9814654	real47	118	2954	8
091112	11:53	9814654	real85	119	4570	9
091112	11:53	9814654	confidence	120	730	9
091112	11:53	9814654	followup1	1	32328	3
091112	11:53	9814654	followup2	2	15043	1
091212	09:01	8	article	1	10557	newspaper
091212	09:01	8	lost	2	20439	TV
091212	09:01	8	old	3	9618	man
091212	09:01	8	prac2	1	15166	9
091212	09:01	8	prac8	2	11760	10
091212	09:01	8	prac5	3	4915	7
091212	09:01	8	prac6	4	5396	9
091212	09:01	8	prac4	5	5379	8
091212	09:01	8	prac1	6	5162	6
091212	09:01	8	prac7	7	7074	8
091212	09:01	8	prac3	8	5863	8
091212	09:01	8	real33	1	7869	5
091212	09:01	8	real35	2	2250	5
091212	09:01	8	real79	3	2813	5
091212	09:01	8	real18	4	3355	10
091212	09:01	8	confidence	5	5203	9
091212	09:01	8	real24	6	8554	5
091212	09:01	8	real54	7	2252	10
091212	09:01	8	real48	8	3263	1
091212	09:01	8	real6	9	1795	10
091212	09:01	8	confidence	10	4496	10
091212	09:01	8	real7	11	3131	10
091212	09:01	8	real68	12	4451	5
091212	09:01	8	real38	13	3944	10
091212	09:01	8	real58	14	7584	5
091212	09:01	8	confidence	15	4624	10
091212	09:01	8	real86	16	5070	5
091212	09:01	8	real17	17	1850	10
091212	09:01	8	real71	18	3358	10
091212	09:01	8	real66	19	5766	5
091212	09:01	8	confidence	20	3494	5
091212	09:01	8	real19	21	1952	10
091212	09:01	8	real67	22	1904	10
091212	09:01	8	real32	23	3290	5
091212	09:01	8	real43	24	3213	5
091212	09:01	8	confidence	25	3666	10
091212	09:01	8	real93	26	9653	5
091212	09:01	8	real15	27	5668	1
091212	09:01	8	real16	28	4664	5
091212	09:01	8	real61	29	1892	10
091212	09:01	8	confidence	30	2630	10
091212	09:01	8	real44	31	7866	5
091212	09:01	8	real88	32	6903	5
091212	09:01	8	real69	33	3795	10
091212	09:01	8	real34	34	4177	5
091212	09:01	8	confidence	35	2664	5
091212	09:01	8	real13	36	3259	5
091212	09:01	8	real56	37	2783	10
091212	09:01	8	real80	38	2573	10
091212	09:01	8	real36	39	3412	10
091212	09:01	8	confidence	40	2178	10
091212	09:01	8	real62	41	4032	10
091212	09:01	8	real75	42	5685	5
091212	09:01	8	real39	43	4393	10
091212	09:01	8	real26	44	5591	10
091212	09:01	8	confidence	45	2575	5
091212	09:01	8	real37	46	3302	10
091212	09:01	8	real90	47	4680	10
091212	09:01	8	real72	48	4963	10
091212	09:01	8	real30	49	3003	10
091212	09:01	8	confidence	50	2313	10
091212	09:01	8	real77	51	3179	10
091212	09:01	8	real59	52	4969	10
091212	09:01	8	real73	53	3937	10
091212	09:01	8	real89	54	5986	5
091212	09:01	8	confidence	55	2209	10
091212	09:01	8	real82	56	4351	10
091212	09:01	8	real94	57	2831	10
091212	09:01	8	real64	58	1452	10
091212	09:01	8	real20	59	1152	10
091212	09:01	8	confidence	60	1111	10
091212	09:01	8	real5	61	5160	10
091212	09:01	8	real40	62	2384	10
091212	09:01	8	real22	63	1855	10
091212	09:01	8	real25	64	5195	10
091212	09:01	8	confidence	65	1721	10
091212	09:01	8	real9	66	3034	10
091212	09:01	8	real53	67	3983	5
091212	09:01	8	real60	68	5222	10
091212	09:01	8	real92	69	2636	10
091212	09:01	8	confidence	70	2496	10
091212	09:01	8	real91	71	2490	10
091212	09:01	8	real8	72	3469	5
091212	09:01	8	real4	73	5064	10
091212	09:01	8	real49	74	5020	10
091212	09:01	8	confidence	75	4682	5
091212	09:01	8	real31	76	6157	5
091212	09:01	8	real55	77	2582	10
091212	09:01	8	real14	78	2501	10
091212	09:01	8	real42	79	4143	5
091212	09:01	8	confidence	80	3087	10
091212	09:01	8	real50	81	3330	10
091212	09:01	8	real12	82	2819	10
091212	09:01	8	real11	83	4040	10
091212	09:01	8	real65	84	3117	5
091212	09:01	8	confidence	85	3574	10
091212	09:01	8	real95	86	4974	10
091212	09:01	8	real52	87	2014	5
091212	09:01	8	real78	88	2731	10
091212	09:01	8	real81	89	2523	10
091212	09:01	8	confidence	90	2580	10
091212	09:01	8	real76	91	3571	10
091212	09:01	8	real45	92	7386	10
091212	09:01	8	real29	93	1243	10
091212	09:01	8	real83	94	1558	10
091212	09:01	8	confidence	95	1582	10
091212	09:01	8	real51	96	3421	5
091212	09:01	8	real74	97	4098	10
091212	09:01	8	real1	98	4212	5
091212	09:01	8	real63	99	5378	10
091212	09:01	8	confidence	100	2242	10
091212	09:01	8	real41	101	2686	10
091212	09:01	8	real57	102	4280	10
091212	09:01	8	real70	103	3907	5
091212	09:01	8	real10	104	4078	5
091212	09:01	8	confidence	105	2233	10
091212	09:01	8	real28	106	3061	5
091212	09:01	8	real27	107	5409	10
091212	09:01	8	real84	108	2159	10
091212	09:01	8	real87	109	1270	10
091212	09:01	8	confidence	110	1465	10
091212	09:01	8	real2	111	3516	5
091212	09:01	8	real3	112	2957	5
091212	09:01	8	real21	113	2526	10
091212	09:01	8	real23	114	1975	10
091212	09:01	8	confidence	115	1934	10
091212	09:01	8	real96	116	4774	5
091212	09:01	8	real46	117	1926	10
091212	09:01	8	real47	118	1631	10
091212	09:01	8	real85	119	6483	5
091212	09:01	8	confidence	120	1831	10
091212	09:01	8	followup1	1	36032	1
091212	09:01	8	followup2	2	39559	2
091212	09:32	8	article	1	10521	history
091212	09:32	8	old	2	5014	new
091212	09:32	8	lost	3	4012	stolen
091212	09:32	8	prac3	1	15701	6
091212	09:32	8	prac6	2	10612	9
091212	09:32	8	prac5	3	5060	2
091212	09:32	8	prac2	4	3024	9
091212	09:32	8	prac1	5	6853	1
091212	09:32	8	prac4	6	3762	9
091212	09:32	8	prac7	7	2522	1
091212	09:32	8	prac8	8	3099	9
091212	09:32	8	real33	1	5554	2
091212	09:32	8	real35	2	3019	3
091212	09:32	8	real79	3	4360	2
091212	09:32	8	real18	4	4536	9
091212	09:32	8	confidence	5	4345	9
091212	09:32	8	real24	6	3674	9
091212	09:32	8	real54	7	3821	4
091212	09:32	8	real48	8	3467	2
091212	09:32	8	real6	9	4086	9
091212	09:32	8	confidence	10	3241	8
091212	09:32	8	real7	11	2206	9
091212	09:32	8	real68	12	4476	3
091212	09:32	8	real38	13	1647	9
091212	09:32	8	real58	14	1210	9
091212	09:32	8	confidence	15	3119	7
091212	09:32	8	real86	16	2936	4
091212	09:32	8	real17	17	3089	3
091212	09:32	8	real71	18	2820	9
091212	09:32	8	real66	19	1929	6
091212	09:32	8	confidence	20	2266	8
091212	09:32	8	real19	21	1453	9
091212	09:32	8	real67	22	1104	9
091212	09:32	8	real32	23	5185	6
091212	09:32	8	real43	24	2121	4
091212	09:32	8	confidence	25	4514	7
091212	09:32	8	real93	26	2612	9
091212	09:32	8	real15	27	2857	9
091212	09:32	8	real16	28	2117	4
091212	09:32	8	real61	29	1670	9
091212	09:32	8	confidence	30	1481	9
091212	09:32	8	real44	31	8363	3
091212	09:32	8	real88	32	3068	2
091212	09:32	8	real69	33	2087	4
091212	09:32	8	real34	34	1778	9
091212	09:32	8	confidence	35	1824	9
091212	09:32	8	real13	36	4581	8
091212	09:32	8	real56	37	1588	9
091212	09:32	8	real80	38	2147	6
091212	09:32	8	real36	39	1666	4
091212	09:32	8	confidence	40	3045	7
091212	09:32	8	real62	41	1481	9
091212	09:32	8	real75	42	1563	9
091212	09:32	8	real39	43	7666	6
091212	09:32	8	real26	44	2127	4
091212	09:32	8	confidence	45	2199	8
091212	09:32	8	real37	46	2509	9
091212	09:32	8	real90	47	1799	9
091212	09:32	8	real72	48	1653	6
091212	09:32	8	real30	49	1840	9
091212	09:32	8	confidence	50	1380	9
091212	09:32	8	real77	51	5370	9
091212	09:32	8	real59	52	2283	7
091212	09:32	8	real73	53	1933	9
091212	09:32	8	real89	54	2213	6
091212	09:32	8	confidence	55	1706	8
091212	09:32	8	real82	56	2508	7
091212	09:32	8	real94	57	1302	9
091212	09:32	8	real64	58	1920	9
091212	09:32	8	real20	59	2176	9
091212	09:32	8	confidence	60	639	9
091212	09:32	8	real5	61	1403	9
091212	09:32	8	real40	62	1448	6
091212	09:32	8	real22	63	1988	5
091212	09:32	8	real25	64	1882	7
091212	09:32	8	confidence	65	1036	8
091212	09:32	8	real9	66	2296	8
091212	09:32	8	real53	67	3514	3
091212	09:32	8	real60	68	1716	4
091212	09:32	8	real92	69	1213	9
091212	09:32	8	confidence	70	1481	9
091212	09:32	8	real91	71	1691	4
091212	09:32	8	real8	72	1422	3
091212	09:32	8	real4	73	1410	9
091212	09:32	8	real49	74	3271	3
091212	09:32	8	confidence	75	1707	8
091212	09:32	8	real31	76	7948	7
091212	09:32	8	real55	77	1126	9
091212	09:32	8	real14	78	1351	9
091212	09:32	8	real42	79	4014	5
091212	09:32	8	confidence	80	2716	7
091212	09:32	8	real50	81	2357	9
091212	09:32	8	real12	82	2037	8
091212	09:32	8	real11	83	4241	5
091212	09:32	8	real65	84	2118	2
091212	09:32	8	confidence	85	1895	8
091212	09:32	8	real95	86	2521	9
091212	09:32	8	real52	87	3514	4
091212	09:32	8	real78	88	1548	9
091212	09:32	8	real81	89	1107	9
091212	09:32	8	confidence	90	852	9
091212	09:32	8	real76	91	2848	2
091212	09:32	8	real45	92	1260	2
091212	09:32	8	real29	93	1295	9
091212	09:32	8	real83	94	2033	4
091212	09:32	8	confidence	95	1341	9
091212	09:32	8	real51	96	2141	5
091212	09:32	8	real74	97	1590	9
091212	09:32	8	real1	98	2676	8
091212	09:32	8	real63	99	1967	5
091212	09:32	8	confidence	100	1734	8
091212	09:32	8	real41	101	1118	9
091212	09:32	8	real57	102	1887	7
091212	09:32	8	real70	103	1913	9
091212	09:32	8	real10	104	2978	2
091212	09:32	8	confidence	105	1489	9
091212	09:32	8	real28	106	2091	6
091212	09:32	8	real27	107	1301	9
091212	09:32	8	real84	108	1759	9
091212	09:32	8	real87	109	742	9
091212	09:32	8	confidence	110	406	9
091212	09:32	8	real2	111	9155	5
091212	09:32	8	real3	112	2477	1
091212	09:32	8	real21	113	1840	9
091212	09:32	8	real23	114	7092	9
091212	09:32	8	confidence	115	1240	9
091212	09:32	8	real96	116	5164	3
091212	09:32	8	real46	117	1228	9
091212	09:32	8	real47	118	1712	9
091212	09:32	8	real85	119	1065	9
091212	09:32	8	confidence	120	796	9
091212	09:32	8	followup1	1	20446	3
091212	09:32	8	followup2	2	23312	1
091212	09:51	8	old	1	11918	Lady
091212	09:51	8	lost	2	5995	DOG
091212	09:51	8	article	3	6891	NEWSPAPER
091212	09:51	8	prac1	1	10040	2
091212	09:51	8	prac6	2	6503	3
091212	09:51	8	prac7	3	3986	1
091212	09:51	8	prac2	4	4265	6
091212	09:51	8	prac4	5	4261	4
091212	09:51	8	prac5	6	4305	1
091212	09:51	8	prac3	7	4251	2
091212	09:51	8	prac8	8	5320	10
091212	09:51	8	real33	1	7772	4
091212	09:51	8	real35	2	4821	8
091212	09:51	8	real79	3	3595	2
091212	09:51	8	real18	4	5762	6
091212	09:51	8	confidence	5	6954	6
091212	09:51	8	real24	6	5275	8
091212	09:51	8	real54	7	3799	6
091212	09:51	8	real48	8	5933	5
091212	09:51	8	real6	9	2807	6
091212	09:51	8	confidence	10	3405	9
091212	09:51	8	real7	11	3411	6
091212	09:51	8	real68	12	3288	4
091212	09:51	8	real38	13	5147	7
091212	09:51	8	real58	14	2428	8
091212	09:51	8	confidence	15	2168	7
091212	09:51	8	real86	16	8031	8
091212	09:51	8	real17	17	6901	7
091212	09:51	8	real71	18	3744	9
091212	09:51	8	real66	19	6025	2
091212	09:51	8	confidence	20	2455	6
091212	09:51	8	real19	21	3851	6
091212	09:51	8	real67	22	6759	6
091212	09:51	8	real32	23	3216	2
091212	09:51	8	real43	24	6365	7
091212	09:51	8	confidence	25	1870	6
091212	09:51	8	real93	26	5313	9
091212	09:51	8	real15	27	4403	2
091212	09:51	8	real16	28	5929	7
091212	09:51	8	real61	29	4347	6
091212	09:51	8	confidence	30	5203	8
091212	09:51	8	real44	31	5114	2
091212	09:51	8	real88	32	4580	8
091212	09:51	8	real69	33	3723	6
091212	09:51	8	real34	34	3773	9
091212	09:51	8	confidence	35	2044	6
091212	09:51	8	real13	36	9488	8
091212	09:51	8	real56	37	5981	4
091212	09:51	8	real80	38	5813	8
091212	09:51	8	real36	39	11947	3
091212	09:51	8	confidence	40	2462	4
091212	09:51	8	real62	41	4345	6
091212	09:51	8	real75	42	3545	8
091212	09:51	8	real39	43	4866	1
091212	09:51	8	real26	44	4109	5
091212	09:51	8	confidence	45	2359	4
091212	09:51	8	real37	46	6287	7
091212	09:51	8	real90	47	4667	2
091212	09:51	8	real72	48	9998	9
091212	09:51	8	real30	49	3999	10
091212	09:51	8	confidence	50	2581	6
091212	09:51	8	real77	51	6748	5
091212	09:51	8	real59	52	5085	4
091212	09:51	8	real73	53	2816	8
091212	09:51	8	real89	54	2918	9
091212	09:51	8	confidence	55	1927	9
091212	09:51	8	real82	56	3104	9
091212	09:51	8	real94	57	1554	9
091212	09:51	8	real64	58	2562	9
091212	09:51	8	real20	59	9864	3
091212	09:51	8	confidence	60	2102	2
091212	09:51	8	real5	61	2752	8
091212	09:51	8	real40	62	3519	8
091212	09:51	8	real22	63	5737	2
091212	09:51	8	real25	64	7715	1
091212	09:51	8	confidence	65	1918	6
091212	09:51	8	real9	66	3295	10
091212	09:51	8	real53	67	3361	1
091212	09:51	8	real60	68	5256	9
091212	09:51	8	real92	69	2205	6
091212	09:51	8	confidence	70	1523	6
091212	09:51	8	real91	71	5020	2
091212	09:51	8	real8	72	4626	6
091212	09:51	8	real4	73	5599	3
091212	09:51	8	real49	74	4550	10
091212	09:51	8	confidence	75	2110	9
091212	09:51	8	real31	76	4184	10
091212	09:51	8	real55	77	4727	9
091212	09:51	8	real14	78	5576	8
091212	09:51	8	real42	79	2712	5
091212	09:51	8	confidence	80	5001	4
091212	09:51	8	real50	81	4464	9
091212	09:51	8	real12	82	3427	10
091212	09:51	8	real11	83	4736	4
091212	09:51	8	real65	84	3466	9
091212	09:51	8	confidence	85	1757	8
091212	09:51	8	real95	86	6236	10
091212	09:51	8	real52	87	3050	1
091212	09:51	8	real78	88	3758	6
091212	09:51	8	real81	89	2255	9
091212	09:51	8	confidence	90	1842	9
091212	09:51	8	real76	91	5823	4
091212	09:51	8	real45	92	5757	4
091212	09:51	8	real29	93	4926	7
091212	09:51	8	real83	94	2583	10
091212	09:51	8	confidence	95	2126	10
091212	09:51	8	real51	96	4567	5
091212	09:51	8	real74	97	4598	8
091212	09:51	8	real1	98	2469	10
091212	09:51	8	real63	99	2712	2
091212	09:51	8	confidence	100	2898	8
091212	09:51	8	real41	101	2972	7
091212	09:51	8	real57	102	2835	9
091212	09:51	8	real70	103	4399	5
091212	09:51	8	real10	104	6958	1
091212	09:51	8	confidence	105	2391	8
091212	09:51	8	real28	106	3238	9
091212	09:51	8	real27	107	4490	5
091212	09:51	8	real84	108	2397	9
091212	09:51	8	real87	109	3211	6
091212	09:51	8	confidence	110	2665	6
091212	09:51	8	real2	111	7132	2
091212	09:51	8	real3	112	5086	6
091212	09:51	8	real21	113	2784	7
091212	09:51	8	real23	114	5048	9
091212	09:51	8	confidence	115	2325	8
091212	09:51	8	real96	116	4206	1
091212	09:51	8	real46	117	2708	6
091212	09:51	8	real47	118	2454	9
091212	09:51	8	real85	119	5418	7
091212	09:51	8	confidence	120	1984	6
091212	09:51	8	followup1	1	29756	3
091212	09:51	8	followup2	2	17981	1
091212	11:47	45	article	1	18908	writing
091212	11:47	45	old	2	6908	people
091212	11:47	45	lost	3	3735	Found
091212	11:47	45	prac1	1	14566	5
091212	11:47	45	prac2	2	6713	9
091212	11:47	45	prac6	3	3266	9
091212	11:47	45	prac3	4	2638	3
091212	11:47	45	prac8	5	1891	8
091212	11:47	45	prac5	6	4318	2
091212	11:47	45	prac7	7	3088	2
091212	11:47	45	prac4	8	2330	7
091212	11:47	45	real33	1	3489	6
091212	11:47	45	real35	2	3676	5
091212	11:47	45	real79	3	3103	6
091212	11:47	45	real18	4	2553	7
091212	11:47	45	confidence	5	8577	6
091212	11:47	45	real24	6	5617	7
091212	11:47	45	real54	7	2032	3
091212	11:47	45	real48	8	3548	6
091212	11:47	45	real6	9	2108	9
091212	11:47	45	confidence	10	2142	8
091212	11:47	45	real7	11	2390	7
091212	11:47	45	real68	12	3925	5
091212	11:47	45	real38	13	1678	7
091212	11:47	45	real58	14	2193	8
091212	11:47	45	confidence	15	1207	7
091212	11:47	45	real86	16	2764	4
091212	11:47	45	real17	17	2916	8
091212	11:47	45	real71	18	1573	7
091212	11:47	45	real66	19	2228	6
091212	11:47	45	confidence	20	2320	6
091212	11:47	45	real19	21	2786	9
091212	11:47	45	real67	22	1848	8
091212	11:47	45	real32	23	2587	5
091212	11:47	45	real43	24	2018	6
091212	11:47	45	confidence	25	919	5
091212	11:47	45	real93	26	2560	3
091212	11:47	45	real15	27	3543	5
091212	11:47	45	real16	28	2311	4
091212	11:47	45	real61	29	1928	9
091212	11:47	45	confidence	30	2993	9
091212	11:47	45	real44	31	2791	6
091212	11:47	45	real88	32	3046	5
091212	11:47	45	real69	33	1514	8
091212	11:47	45	real34	34	3515	7
091212	11:47	45	confidence	35	2084	6
091212	11:47	45	real13	36	4719	6
091212	11:47	45	real56	37	1785	8
091212	11:47	45	real80	38	3047	4
091212	11:47	45	real36	39	2715	2
091212	11:47	45	confidence	40	2763	7
091212	11:47	45	real62	41	1731	7
091212	11:47	45	real75	42	3484	8
091212	11:47	45	real39	43	1943	7
091212	11:47	45	real26	44	2135	4
091212	11:47	45	confidence	45	2703	6
091212	11:47	45	real37	46	2073	8
091212	11:47	45	real90	47	2236	5
091212	11:47	45	real72	48	1889	7
091212	11:47	45	real30	49	1339	9
091212	11:47	45	confidence	50	1355	8
091212	11:47	45	real77	51	2058	10
091212	11:47	45	real59	52	2286	4
091212	11:47	45	real73	53	1312	9
091212	11:47	45	real89	54	3113	7
091212	11:47	45	confidence	55	1971	6
091212	11:47	45	real82	56	1882	7
091212	11:47	45	real94	57	1836	6
091212	11:47	45	real64	58	2001	5
091212	11:47	45	real20	59	2038	7
091212	11:47	45	confidence	60	1578	7
091212	11:47	45	real5	61	2153	8
091212	11:47	45	real40	62	3048	2
091212	11:47	45	real22	63	4276	4
091212	11:47	45	real25	64	2439	3
091212	11:47	45	confidence	65	1692	6
091212	11:47	45	real9	66	4126	6
091212	11:47	45	real53	67	2751	1
091212	11:47	45	real60	68	3639	6
091212	11:47	45	real92	69	2004	10
091212	11:47	45	confidence	70	1618	8
091212	11:47	45	real91	71	1838	3
091212	11:47	45	real8	72	2667	1
091212	11:47	45	real4	73	1718	10
091212	11:47	45	real49	74	2279	7
091212	11:47	45	confidence	75	2098	7
091212	11:47	45	real31	76	1971	4
091212	11:47	45	real55	77	2154	10
091212	11:47	45	real14	78	1658	8
091212	11:47	45	real42	79	2565	5
091212	11:47	45	confidence	80	1445	7
091212	11:47	45	real50	81	1584	9
091212	11:47	45	real12	82	3694	6
091212	11:47	45	real11	83	4497	5
091212	11:47	45	real65	84	1971	3
091212	11:47	45	confidence	85	2466	7
091212	11:47	45	real95	86	1885	8
091212	11:47	45	real52	87	1496	8
091212	11:47	45	real78	88	2473	3
091212	11:47	45	real81	89	1308	10
091212	11:47	45	confidence	90	1013	9
091212	11:47	45	real76	91	4882	3
091212	11:47	45	real45	92	1806	7
091212	11:47	45	real29	93	1491	9
091212	11:47	45	real83	94	2574	5
091212	11:47	45	confidence	95	1653	7
091212	11:47	45	real51	96	2496	3
091212	11:47	45	real74	97	1482	9
091212	11:47	45	real1	98	1836	5
091212	11:47	45	real63	99	2152	6
091212	11:47	45	confidence	100	1464	5
091212	11:47	45	real41	101	2587	9
091212	11:47	45	real57	102	2137	4
091212	11:47	45	real70	103	4330	5
091212	11:47	45	real10	104	2515	3
091212	11:47	45	confidence	105	2204	4
091212	11:47	45	real28	106	3666	7
091212	11:47	45	real27	107	2806	5
091212	11:47	45	real84	108	4867	6
091212	11:47	45	real87	109	2088	10
091212	11:47	45	confidence	110	1114	9
091212	11:47	45	real2	111	4066	3
091212	11:47	45	real3	112	2246	2
091212	11:47	45	real21	113	2386	9
091212	11:47	45	real23	114	3408	7
091212	11:47	45	confidence	115	1383	7
091212	11:47	45	real96	116	3221	1
091212	11:47	45	real46	117	4458	8
091212	11:47	45	real47	118	4695	4
091212	11:47	45	real85	119	7033	3
091212	11:47	45	confidence	120	1031	5
091212	11:47	45	followup1	1	17234	3
091212	11:47	45	followup2	2	14180	1
