date	time	subject	trialcode	trialnum	latency	response
082712	12:34	4545	real33	1	486	0
082712	12:34	4545	followup1	1	873	0
090412	14:18	45	article	1	10109	newspaper
090412	14:18	45	old	2	9601	people
090412	14:18	45	lost	3	5394	dog
090412	14:18	45	prac8	1	14061	9
090412	14:18	45	prac3	2	3525	7
090412	14:18	45	prac5	3	6078	3
090412	14:18	45	prac6	4	3650	8
090412	14:18	45	prac1	5	3134	1
090412	14:18	45	prac2	6	3783	8
090412	14:18	45	prac7	7	3358	3
090412	14:18	45	prac4	8	2486	6
090412	14:18	45	real33	1	4129	7
090412	14:18	45	real35	2	9401	5
090412	14:18	45	real79	3	3298	4
090412	14:18	45	real18	4	2644	7
090412	14:18	45	confidence	5	5400	6
090412	14:18	45	real24	6	6350	9
090412	14:18	45	real54	7	3487	4
090412	14:18	45	real48	8	2785	5
090412	14:18	45	real6	9	3079	10
090412	14:18	45	confidence	10	1730	8
090412	14:18	45	real7	11	4610	7
090412	14:18	45	real68	12	3040	8
090412	14:18	45	real38	13	5109	7
090412	14:18	45	real58	14	6863	7
090412	14:18	45	confidence	15	2124	9
090412	14:18	45	real86	16	2637	4
090412	14:18	45	real17	17	2505	6
090412	14:18	45	real71	18	3627	8
090412	14:18	45	real66	19	2456	9
090412	14:18	45	confidence	20	1340	9
090412	14:18	45	real19	21	1756	9
090412	14:18	45	real67	22	1947	10
090412	14:18	45	real32	23	1979	8
090412	14:18	45	real43	24	2833	7
090412	14:18	45	confidence	25	2694	9
090412	14:18	45	real93	26	2800	5
090412	14:18	45	real15	27	2397	6
090412	14:18	45	real16	28	3579	5
090412	14:18	45	real61	29	1746	8
090412	14:18	45	confidence	30	1914	7
090412	14:18	45	real44	31	4011	9
090412	14:18	45	real88	32	4416	4
090412	14:18	45	real69	33	1182	4
090412	14:18	45	real34	34	3468	10
090412	14:18	45	confidence	35	1856	8
090412	14:18	45	real13	36	5299	4
090412	14:18	45	real56	37	2718	9
090412	14:18	45	real80	38	1639	10
090412	14:18	45	real36	39	5667	5
090412	14:18	45	confidence	40	2015	7
090412	14:18	45	real62	41	2780	10
090412	14:18	45	real75	42	3683	10
090412	14:18	45	real39	43	5046	5
090412	14:18	45	real26	44	2962	7
090412	14:18	45	confidence	45	3026	8
090412	14:18	45	real37	46	1191	9
090412	14:18	45	real90	47	2021	10
090412	14:18	45	real72	48	6538	6
090412	14:18	45	real30	49	4299	9
090412	14:18	45	confidence	50	1502	8
090412	14:18	45	real77	51	1752	10
090412	14:18	45	real59	52	3455	3
090412	14:18	45	real73	53	5819	9
090412	14:18	45	real89	54	7065	9
090412	14:18	45	confidence	55	1414	9
090412	14:18	45	real82	56	3731	10
090412	14:18	45	real94	57	1644	10
090412	14:18	45	real64	58	3855	8
090412	14:18	45	real20	59	5466	9
090412	14:18	45	confidence	60	1296	10
090412	14:18	45	real5	61	1377	10
090412	14:18	45	real40	62	3783	7
090412	14:18	45	real22	63	2758	9
090412	14:18	45	real25	64	3038	10
090412	14:18	45	confidence	65	1603	9
090412	14:18	45	real9	66	3160	6
090412	14:18	45	real53	67	4191	1
090412	14:18	45	real60	68	4519	7
090412	14:18	45	real92	69	1488	10
090412	14:18	45	confidence	70	3098	7
090412	14:18	45	real91	71	2220	9
090412	14:18	45	real8	72	4489	7
090412	14:18	45	real4	73	2204	10
090412	14:18	45	real49	74	5690	6
090412	14:18	45	confidence	75	4094	7
090412	14:18	45	real31	76	8392	2
090412	14:18	45	real55	77	1959	10
090412	14:18	45	real14	78	3319	10
090412	14:18	45	real42	79	2704	8
090412	14:18	45	confidence	80	3410	9
090412	14:18	45	real50	81	1368	10
090412	14:18	45	real12	82	2279	10
090412	14:18	45	real11	83	969	10
090412	14:18	45	real65	84	2664	6
090412	14:18	45	confidence	85	1227	10
090412	14:18	45	real95	86	2263	10
090412	14:18	45	real52	87	1523	10
090412	14:18	45	real78	88	4347	5
090412	14:18	45	real81	89	1452	10
090412	14:18	45	confidence	90	2471	10
090412	14:18	45	real76	91	1979	10
090412	14:18	45	real45	92	2809	6
090412	14:18	45	real29	93	2039	10
090412	14:18	45	real83	94	2555	8
090412	14:18	45	confidence	95	1171	9
090412	14:18	45	real51	96	1722	8
090412	14:18	45	real74	97	2259	10
090412	14:18	45	real1	98	1422	10
090412	14:18	45	real63	99	2227	10
090412	14:18	45	confidence	100	1416	9
090412	14:18	45	real41	101	1452	10
090412	14:18	45	real57	102	3920	6
090412	14:18	45	real70	103	2145	8
090412	14:18	45	real10	104	2857	2
090412	14:18	45	confidence	105	1605	9
090412	14:18	45	real28	106	2522	9
090412	14:18	45	real27	107	1858	10
090412	14:18	45	real84	108	2839	10
090412	14:18	45	real87	109	1156	10
090412	14:18	45	confidence	110	1459	8
090412	14:18	45	real2	111	2886	7
090412	14:18	45	real3	112	2177	5
090412	14:18	45	real21	113	1744	10
090412	14:18	45	real23	114	1542	10
090412	14:18	45	confidence	115	1879	9
090412	14:18	45	real96	116	3977	7
090412	14:18	45	real46	117	1576	10
090412	14:18	45	real47	118	2159	5
090412	14:18	45	real85	119	3175	10
090412	14:18	45	confidence	120	3518	10
090412	14:18	45	followup2	1	23781	1
090412	14:18	45	followup1	2	20771	3
090412	14:32	96	lost	1	4064	found
090412	14:32	96	article	2	3724	journal
090412	14:32	96	old	3	2974	new
090412	14:32	96	prac7	1	3440	3
090412	14:32	96	prac3	2	2284	2
090412	14:32	96	prac1	3	2439	3
090412	14:32	96	prac6	4	1482	7
090412	14:32	96	prac4	5	1574	6
090412	14:32	96	prac5	6	3237	4
090412	14:32	96	prac8	7	2561	7
090412	14:32	96	prac2	8	4992	10
090412	14:32	96	real33	1	2345	2
090412	14:32	96	real35	2	2409	5
090412	14:32	96	real79	3	1231	3
090412	14:32	96	real18	4	1619	7
090412	14:32	96	confidence	5	2152	8
090412	14:32	96	real24	6	2271	5
090412	14:32	96	real54	7	2450	4
090412	14:32	96	real48	8	3390	3
090412	14:32	96	real6	9	2541	10
090412	14:32	96	confidence	10	2765	10
090412	14:32	96	real7	11	2613	7
090412	14:32	96	real68	12	1874	5
090412	14:32	96	real38	13	2421	5
090412	14:32	96	real58	14	1890	7
090412	14:32	96	confidence	15	2196	8
090412	14:32	96	real86	16	2938	3
090412	14:32	96	real17	17	1770	8
090412	14:32	96	real71	18	2849	3
090412	14:32	96	real66	19	1997	6
090412	14:32	96	confidence	20	2138	7
090412	14:32	96	real19	21	1731	9
090412	14:32	96	real67	22	1931	3
090412	14:32	96	real32	23	2508	6
090412	14:32	96	real43	24	2870	5
090412	14:32	96	confidence	25	1377	6
090412	14:32	96	real93	26	2288	5
090412	14:32	96	real15	27	3130	7
090412	14:32	96	real16	28	2818	6
090412	14:32	96	real61	29	2696	10
090412	14:32	96	confidence	30	1506	10
090412	14:32	96	real44	31	2883	6
090412	14:32	96	real88	32	2134	5
090412	14:32	96	real69	33	1382	8
090412	14:32	96	real34	34	2420	9
090412	14:32	96	confidence	35	1505	9
090412	14:32	96	real13	36	3179	8
090412	14:32	96	real56	37	3393	10
090412	14:32	96	real80	38	1840	8
090412	14:32	96	real36	39	1947	6
090412	14:32	96	confidence	40	2356	6
090412	14:32	96	real62	41	2835	7
090412	14:32	96	real75	42	2808	7
090412	14:32	96	real39	43	2061	4
090412	14:32	96	real26	44	2353	3
090412	14:32	96	confidence	45	2041	7
090412	14:32	96	real37	46	6076	7
090412	14:32	96	real90	47	3448	5
090412	14:32	96	real72	48	2677	5
090412	14:32	96	real30	49	2567	6
090412	14:32	96	confidence	50	1534	7
090412	14:32	96	real77	51	2782	5
090412	14:32	96	real59	52	2429	4
090412	14:32	96	real73	53	2049	9
090412	14:32	96	real89	54	2445	5
090412	14:32	96	confidence	55	2073	7
090412	14:32	96	real82	56	2772	3
090412	14:32	96	real94	57	1963	4
090412	14:32	96	real64	58	2290	5
090412	14:32	96	real20	59	1845	6
090412	14:32	96	confidence	60	2328	7
090412	14:32	96	real5	61	2624	10
090412	14:32	96	real40	62	1949	7
090412	14:32	96	real22	63	1989	6
090412	14:32	96	real25	64	1827	5
090412	14:32	96	confidence	65	1512	7
090412	14:32	96	real9	66	2601	5
090412	14:32	96	real53	67	2246	8
090412	14:32	96	real60	68	3058	6
090412	14:32	96	real92	69	3150	10
090412	14:32	96	confidence	70	2022	10
090412	14:32	96	real91	71	2651	6
090412	14:32	96	real8	72	3351	6
090412	14:32	96	real4	73	1719	9
090412	14:32	96	real49	74	2488	4
090412	14:32	96	confidence	75	4530	6
090412	14:32	96	real31	76	7515	1
090412	14:32	96	real55	77	2262	10
090412	14:32	96	real14	78	2889	2
090412	14:32	96	real42	79	2508	4
090412	14:32	96	confidence	80	1862	6
090412	14:32	96	real50	81	1969	10
090412	14:32	96	real12	82	2368	5
090412	14:32	96	real11	83	3159	6
090412	14:32	96	real65	84	1383	4
090412	14:32	96	confidence	85	2357	6
090412	14:32	96	real95	86	2925	4
090412	14:32	96	real52	87	2742	6
090412	14:32	96	real78	88	2350	5
090412	14:32	96	real81	89	1902	10
090412	14:32	96	confidence	90	2016	10
090412	14:32	96	real76	91	1821	5
090412	14:32	96	real45	92	3682	4
090412	14:32	96	real29	93	2036	10
090412	14:32	96	real83	94	2417	6
090412	14:32	96	confidence	95	2070	5
090412	14:32	96	real51	96	3345	2
090412	14:32	96	real74	97	1881	10
090412	14:32	96	real1	98	1971	2
090412	14:32	96	real63	99	2186	4
090412	14:32	96	confidence	100	2521	4
090412	14:32	96	real41	101	1570	9
090412	14:32	96	real57	102	3928	6
090412	14:32	96	real70	103	1561	4
090412	14:32	96	real10	104	1920	2
090412	14:32	96	confidence	105	2145	8
090412	14:32	96	real28	106	4249	7
090412	14:32	96	real27	107	2324	6
090412	14:32	96	real84	108	2518	4
090412	14:32	96	real87	109	1951	10
090412	14:32	96	confidence	110	2991	10
090412	14:32	96	real2	111	1814	4
090412	14:32	96	real3	112	3322	3
090412	14:32	96	real21	113	3284	8
090412	14:32	96	real23	114	3575	8
090412	14:32	96	confidence	115	3022	4
090412	14:32	96	real96	116	3043	3
090412	14:32	96	real46	117	2288	10
090412	14:32	96	real47	118	1402	3
090412	14:32	96	real85	119	3911	8
090412	14:32	96	confidence	120	1424	7
090412	14:32	96	followup2	1	23304	1
090412	14:32	96	followup1	2	10225	3
090612	12:02	77889	article	1	13571	clothing
090612	12:02	77889	lost	2	5999	found
090612	12:02	77889	old	3	6782	dog
090612	12:02	77889	prac8	1	6817	9
090612	12:02	77889	prac6	2	4880	9
090612	12:02	77889	prac2	3	5147	7
090612	12:02	77889	prac3	4	6044	5
090612	12:02	77889	prac4	5	5233	7
090612	12:02	77889	prac1	6	17942	7
090612	12:02	77889	prac7	7	7915	4
090612	12:02	77889	prac5	8	7606	2
090612	12:02	77889	real33	1	8940	8
090612	12:02	77889	real35	2	4791	4
090612	12:02	77889	real79	3	4094	8
090612	12:02	77889	real18	4	5320	6
090612	12:02	77889	confidence	5	5570	10
090612	12:02	77889	real24	6	2379	9
090612	12:02	77889	real54	7	3457	6
090612	12:02	77889	real48	8	3389	4
090612	12:02	77889	real6	9	2324	10
090612	12:02	77889	confidence	10	2949	10
090612	12:02	77889	real7	11	3045	8
090612	12:02	77889	real68	12	3649	4
090612	12:02	77889	real38	13	3717	8
090612	12:02	77889	real58	14	2502	8
090612	12:02	77889	confidence	15	2952	7
090612	12:02	77889	real86	16	3864	6
090612	12:02	77889	real17	17	2964	9
090612	12:02	77889	real71	18	1987	10
090612	12:02	77889	real66	19	1993	4
090612	12:02	77889	confidence	20	2431	7
090612	12:02	77889	real19	21	1851	10
090612	12:02	77889	real67	22	3911	6
090612	12:02	77889	real32	23	2121	4
090612	12:02	77889	real43	24	2666	3
090612	12:02	77889	confidence	25	1861	5
090612	12:02	77889	real93	26	3672	2
090612	12:02	77889	real15	27	4004	2
090612	12:02	77889	real16	28	3802	9
090612	12:02	77889	real61	29	2248	10
090612	12:02	77889	confidence	30	1692	9
090612	12:02	77889	real44	31	3438	7
090612	12:02	77889	real88	32	2251	2
090612	12:02	77889	real69	33	2279	3
090612	12:02	77889	real34	34	2105	10
090612	12:02	77889	confidence	35	1897	9
090612	12:02	77889	real13	36	5188	4
090612	12:02	77889	real56	37	1948	10
090612	12:02	77889	real80	38	2491	6
090612	12:02	77889	real36	39	1142	7
090612	12:02	77889	confidence	40	1878	4
090612	12:02	77889	real62	41	2184	4
090612	12:02	77889	real75	42	3007	9
090612	12:02	77889	real39	43	1540	3
090612	12:02	77889	real26	44	1693	8
090612	12:02	77889	confidence	45	2207	3
090612	12:02	77889	real37	46	3124	8
090612	12:02	77889	real90	47	2174	7
090612	12:02	77889	real72	48	2605	5
090612	12:02	77889	real30	49	1795	10
090612	12:02	77889	confidence	50	1568	10
090612	12:02	77889	real77	51	1727	10
090612	12:02	77889	real59	52	4062	1
090612	12:02	77889	real73	53	3011	10
090612	12:02	77889	real89	54	5696	4
090612	12:02	77889	confidence	55	1515	3
090612	12:02	77889	real82	56	3860	7
090612	12:02	77889	real94	57	1999	4
090612	12:02	77889	real64	58	6677	8
090612	12:02	77889	real20	59	3977	8
090612	12:02	77889	confidence	60	1696	9
090612	12:02	77889	real5	61	1777	10
090612	12:02	77889	real40	62	2816	2
090612	12:02	77889	real22	63	2061	3
090612	12:02	77889	real25	64	3208	1
090612	12:02	77889	confidence	65	2206	8
090612	12:02	77889	real9	66	1740	3
090612	12:02	77889	real53	67	4764	5
090612	12:02	77889	real60	68	2436	4
090612	12:02	77889	real92	69	2352	10
090612	12:02	77889	confidence	70	1576	10
090612	12:02	77889	real91	71	2311	4
090612	12:02	77889	real8	72	2232	2
090612	12:02	77889	real4	73	1876	10
090612	12:02	77889	real49	74	1727	3
090612	12:02	77889	confidence	75	1583	8
090612	12:02	77889	real31	76	1933	4
090612	12:02	77889	real55	77	1774	10
090612	12:02	77889	real14	78	1741	2
090612	12:02	77889	real42	79	2301	2
090612	12:02	77889	confidence	80	1647	7
090612	12:02	77889	real50	81	1426	10
090612	12:02	77889	real12	82	1647	3
090612	12:02	77889	real11	83	4947	8
090612	12:02	77889	real65	84	2795	1
090612	12:02	77889	confidence	85	1849	7
090612	12:02	77889	real95	86	2709	2
090612	12:02	77889	real52	87	1711	4
090612	12:02	77889	real78	88	4343	2
090612	12:02	77889	real81	89	2080	10
090612	12:02	77889	confidence	90	2210	9
090612	12:02	77889	real76	91	13472	6
090612	12:02	77889	real45	92	1598	3
090612	12:02	77889	real29	93	1659	10
090612	12:02	77889	real83	94	1511	3
090612	12:02	77889	confidence	95	1456	9
090612	12:02	77889	real51	96	1403	3
090612	12:02	77889	real74	97	1872	10
090612	12:02	77889	real1	98	1844	2
090612	12:02	77889	real63	99	1383	3
090612	12:02	77889	confidence	100	1469	8
090612	12:02	77889	real41	101	1944	10
090612	12:02	77889	real57	102	1488	3
090612	12:02	77889	real70	103	1290	4
090612	12:02	77889	real10	104	1260	5
090612	12:02	77889	confidence	105	1799	5
090612	12:02	77889	real28	106	1564	2
090612	12:02	77889	real27	107	1244	4
090612	12:02	77889	real84	108	2167	4
090612	12:02	77889	real87	109	1462	10
090612	12:02	77889	confidence	110	1761	10
090612	12:02	77889	real2	111	1800	4
090612	12:02	77889	real3	112	2774	1
090612	12:02	77889	real21	113	1637	10
090612	12:02	77889	real23	114	2777	7
090612	12:02	77889	confidence	115	1576	8
090612	12:02	77889	real96	116	1230	3
090612	12:02	77889	real46	117	1690	10
090612	12:02	77889	real47	118	1564	4
090612	12:02	77889	real85	119	2955	5
090612	12:02	77889	confidence	120	1355	5
090612	12:02	77889	followup2	1	14620	1
090612	12:02	77889	followup1	2	14630	3
090612	13:27	8675309	article	1	7228	paper
090612	13:27	8675309	old	2	6298	young
090612	13:27	8675309	lost	3	5670	find
090612	13:27	8675309	prac3	1	16566	3
090612	13:27	8675309	prac7	2	13122	3
090612	13:27	8675309	prac6	3	5815	6
090612	13:27	8675309	prac1	4	6333	3
090612	13:27	8675309	prac8	5	4487	8
090612	13:27	8675309	prac2	6	4370	10
090612	13:27	8675309	prac4	7	5248	6
090612	13:27	8675309	prac5	8	5454	9
090612	13:27	8675309	real33	1	10132	7
090612	13:27	8675309	real35	2	2711	9
090612	13:27	8675309	real79	3	2656	4
090612	13:27	8675309	real18	4	2796	7
090612	13:27	8675309	confidence	5	11754	6
090612	13:27	8675309	real24	6	2861	9
090612	13:27	8675309	real54	7	3168	7
090612	13:27	8675309	real48	8	4135	7
090612	13:27	8675309	real6	9	3296	9
090612	13:27	8675309	confidence	10	4434	10
090612	13:27	8675309	real7	11	1920	9
090612	13:27	8675309	real68	12	1801	9
090612	13:27	8675309	real38	13	2982	8
090612	13:27	8675309	real58	14	2732	8
090612	13:27	8675309	confidence	15	3325	10
090612	13:27	8675309	real86	16	5222	7
090612	13:27	8675309	real17	17	3141	8
090612	13:27	8675309	real71	18	4077	9
090612	13:27	8675309	real66	19	2152	9
090612	13:27	8675309	confidence	20	3736	8
090612	13:27	8675309	real19	21	4569	10
090612	13:27	8675309	real67	22	2161	9
090612	13:27	8675309	real32	23	3023	9
090612	13:27	8675309	real43	24	3389	9
090612	13:27	8675309	confidence	25	1924	10
090612	13:27	8675309	real93	26	6044	10
090612	13:27	8675309	real15	27	3394	4
090612	13:27	8675309	real16	28	6528	6
090612	13:27	8675309	real61	29	1881	10
090612	13:27	8675309	confidence	30	1411	10
090612	13:27	8675309	real44	31	2617	10
090612	13:27	8675309	real88	32	5021	5
090612	13:27	8675309	real69	33	2108	10
090612	13:27	8675309	real34	34	1605	10
090612	13:27	8675309	confidence	35	1459	10
090612	13:27	8675309	real13	36	5174	7
090612	13:27	8675309	real56	37	5886	10
090612	13:27	8675309	real80	38	2642	10
090612	13:27	8675309	real36	39	2374	5
090612	13:27	8675309	confidence	40	4325	1
090612	13:27	8675309	real62	41	2247	10
090612	13:27	8675309	real75	42	6970	8
090612	13:27	8675309	real39	43	2619	9
090612	13:27	8675309	real26	44	1801	9
090612	13:27	8675309	confidence	45	1950	9
090612	13:27	8675309	real37	46	3222	10
090612	13:27	8675309	real90	47	1491	10
090612	13:27	8675309	real72	48	1613	10
090612	13:27	8675309	real30	49	2202	10
090612	13:27	8675309	confidence	50	912	10
090612	13:27	8675309	real77	51	4144	6
090612	13:27	8675309	real59	52	4177	4
090612	13:27	8675309	real73	53	2056	10
090612	13:27	8675309	real89	54	1883	10
090612	13:27	8675309	confidence	55	1422	10
090612	13:27	8675309	real82	56	2242	5
090612	13:27	8675309	real94	57	3111	8
090612	13:27	8675309	real64	58	2192	10
090612	13:27	8675309	real20	59	3375	5
090612	13:27	8675309	confidence	60	2534	1
090612	13:27	8675309	real5	61	5998	6
090612	13:27	8675309	real40	62	2310	4
090612	13:27	8675309	real22	63	2135	9
090612	13:27	8675309	real25	64	2336	4
090612	13:27	8675309	confidence	65	2336	2
090612	13:27	8675309	real9	66	3848	4
090612	13:27	8675309	real53	67	2453	2
090612	13:27	8675309	real60	68	2600	4
090612	13:27	8675309	real92	69	1638	10
090612	13:27	8675309	confidence	70	1122	10
090612	13:27	8675309	real91	71	3587	8
090612	13:27	8675309	real8	72	2722	2
090612	13:27	8675309	real4	73	3219	10
090612	13:27	8675309	real49	74	1903	10
090612	13:27	8675309	confidence	75	1202	10
090612	13:27	8675309	real31	76	4951	5
090612	13:27	8675309	real55	77	1984	10
090612	13:27	8675309	real14	78	4222	5
090612	13:27	8675309	real42	79	4716	5
090612	13:27	8675309	confidence	80	3150	2
090612	13:27	8675309	real50	81	1398	10
090612	13:27	8675309	real12	82	2348	10
090612	13:27	8675309	real11	83	907	10
090612	13:27	8675309	real65	84	3004	10
090612	13:27	8675309	confidence	85	930	10
090612	13:27	8675309	real95	86	2298	10
090612	13:27	8675309	real52	87	3092	7
090612	13:27	8675309	real78	88	5999	5
090612	13:27	8675309	real81	89	1230	10
090612	13:27	8675309	confidence	90	1106	10
090612	13:27	8675309	real76	91	4851	4
090612	13:27	8675309	real45	92	5823	4
090612	13:27	8675309	real29	93	2590	10
090612	13:27	8675309	real83	94	3468	10
090612	13:27	8675309	confidence	95	3360	10
090612	13:27	8675309	real51	96	5952	9
090612	13:27	8675309	real74	97	6737	10
090612	13:27	8675309	real1	98	3243	3
090612	13:27	8675309	real63	99	4303	8
090612	13:27	8675309	confidence	100	4425	10
090612	13:27	8675309	real41	101	5143	10
090612	13:27	8675309	real57	102	4088	5
090612	13:27	8675309	real70	103	2355	10
090612	13:27	8675309	real10	104	3763	4
090612	13:27	8675309	confidence	105	3178	6
090612	13:27	8675309	real28	106	3129	10
090612	13:27	8675309	real27	107	1314	10
090612	13:27	8675309	real84	108	3554	5
090612	13:27	8675309	real87	109	1163	10
090612	13:27	8675309	confidence	110	1457	10
090612	13:27	8675309	real2	111	5628	8
090612	13:27	8675309	real3	112	5578	5
090612	13:27	8675309	real21	113	1338	10
090612	13:27	8675309	real23	114	4002	10
090612	13:27	8675309	confidence	115	1128	10
090612	13:27	8675309	real96	116	2728	10
090612	13:27	8675309	real46	117	2040	10
090612	13:27	8675309	real47	118	1669	10
090612	13:27	8675309	real85	119	3872	10
090612	13:27	8675309	confidence	120	979	10
090612	13:27	8675309	followup2	1	37159	1
090612	13:27	8675309	followup1	2	15707	3
090612	13:46	867508	lost	1	14139	dog
090612	13:46	867508	old	2	6943	man
090612	13:46	867508	article	3	5001	paper
090612	13:46	867508	prac4	1	9372	8
090612	13:46	867508	prac7	2	4445	6
090612	13:46	867508	prac2	3	3122	9
090612	13:46	867508	prac6	4	3523	10
090612	13:46	867508	prac1	5	2757	5
090612	13:46	867508	prac3	6	5485	6
090612	13:46	867508	prac5	7	4512	7
090612	13:46	867508	prac8	8	2226	9
090612	13:46	867508	real33	1	2319	6
090612	13:46	867508	real35	2	4824	3
090612	13:46	867508	real79	3	2789	7
090612	13:46	867508	real18	4	2036	8
090612	13:46	867508	confidence	5	5777	9
090612	13:46	867508	real24	6	3127	9
090612	13:46	867508	real54	7	3633	10
090612	13:46	867508	real48	8	2174	10
090612	13:46	867508	real6	9	1828	10
090612	13:46	867508	confidence	10	2281	10
090612	13:46	867508	real7	11	2235	9
090612	13:46	867508	real68	12	3759	8
090612	13:46	867508	real38	13	2183	10
090612	13:46	867508	real58	14	1486	10
090612	13:46	867508	confidence	15	1998	10
090612	13:46	867508	real86	16	3029	2
090612	13:46	867508	real17	17	2450	2
090612	13:46	867508	real71	18	2294	10
090612	13:46	867508	real66	19	1840	9
090612	13:46	867508	confidence	20	2212	10
090612	13:46	867508	real19	21	2329	10
090612	13:46	867508	real67	22	1674	9
090612	13:46	867508	real32	23	1460	7
090612	13:46	867508	real43	24	2848	9
090612	13:46	867508	confidence	25	2764	6
090612	13:46	867508	real93	26	6003	2
090612	13:46	867508	real15	27	2362	2
090612	13:46	867508	real16	28	2849	2
090612	13:46	867508	real61	29	2349	10
090612	13:46	867508	confidence	30	2484	10
090612	13:46	867508	real44	31	2583	6
090612	13:46	867508	real88	32	1973	9
090612	13:46	867508	real69	33	2252	10
090612	13:46	867508	real34	34	1872	6
090612	13:46	867508	confidence	35	1915	4
090612	13:46	867508	real13	36	3116	4
090612	13:46	867508	real56	37	2149	10
090612	13:46	867508	real80	38	2221	5
090612	13:46	867508	real36	39	1186	6
090612	13:46	867508	confidence	40	1248	6
090612	13:46	867508	real62	41	1435	4
090612	13:46	867508	real75	42	1615	7
090612	13:46	867508	real39	43	4700	9
090612	13:46	867508	real26	44	1639	7
090612	13:46	867508	confidence	45	3787	1
090612	13:46	867508	real37	46	4329	7
090612	13:46	867508	real90	47	1547	9
090612	13:46	867508	real72	48	1370	10
090612	13:46	867508	real30	49	2041	7
090612	13:46	867508	confidence	50	1189	9
090612	13:46	867508	real77	51	1492	10
090612	13:46	867508	real59	52	1566	7
090612	13:46	867508	real73	53	1477	9
090612	13:46	867508	real89	54	1135	10
090612	13:46	867508	confidence	55	1367	4
090612	13:46	867508	real82	56	3062	9
090612	13:46	867508	real94	57	2562	10
090612	13:46	867508	real64	58	2545	8
090612	13:46	867508	real20	59	2673	4
090612	13:46	867508	confidence	60	1828	1
090612	13:46	867508	real5	61	5472	1
090612	13:46	867508	real40	62	1788	3
090612	13:46	867508	real22	63	2642	9
090612	13:46	867508	real25	64	1855	7
090612	13:46	867508	confidence	65	2186	4
090612	13:46	867508	real9	66	2441	9
090612	13:46	867508	real53	67	2293	5
090612	13:46	867508	real60	68	1750	6
090612	13:46	867508	real92	69	3742	7
090612	13:46	867508	confidence	70	4103	2
090612	13:46	867508	real91	71	4490	2
090612	13:46	867508	real8	72	3301	1
090612	13:46	867508	real4	73	3622	10
090612	13:46	867508	real49	74	1828	9
090612	13:46	867508	confidence	75	1905	10
090612	13:46	867508	real31	76	1578	8
090612	13:46	867508	real55	77	4520	6
090612	13:46	867508	real14	78	3170	4
090612	13:46	867508	real42	79	2506	8
090612	13:46	867508	confidence	80	1771	9
090612	13:46	867508	real50	81	1498	10
090612	13:46	867508	real12	82	1716	8
090612	13:46	867508	real11	83	1373	4
090612	13:46	867508	real65	84	1411	5
090612	13:46	867508	confidence	85	1688	7
090612	13:46	867508	real95	86	3218	8
090612	13:46	867508	real52	87	3600	5
090612	13:46	867508	real78	88	2094	6
090612	13:46	867508	real81	89	3591	10
090612	13:46	867508	confidence	90	3870	3
090612	13:46	867508	real76	91	2226	8
090612	13:46	867508	real45	92	2551	9
090612	13:46	867508	real29	93	3151	10
090612	13:46	867508	real83	94	2639	10
090612	13:46	867508	confidence	95	2811	5
090612	13:46	867508	real51	96	3104	7
090612	13:46	867508	real74	97	2075	8
090612	13:46	867508	real1	98	2238	6
090612	13:46	867508	real63	99	2610	9
090612	13:46	867508	confidence	100	2911	8
090612	13:46	867508	real41	101	2201	10
090612	13:46	867508	real57	102	2478	8
090612	13:46	867508	real70	103	3040	4
090612	13:46	867508	real10	104	3485	10
090612	13:46	867508	confidence	105	1871	10
090612	13:46	867508	real28	106	3091	7
090612	13:46	867508	real27	107	2678	7
090612	13:46	867508	real84	108	1760	5
090612	13:46	867508	real87	109	2711	7
090612	13:46	867508	confidence	110	2824	8
090612	13:46	867508	real2	111	1934	6
090612	13:46	867508	real3	112	4965	4
090612	13:46	867508	real21	113	3981	4
090612	13:46	867508	real23	114	3013	7
090612	13:46	867508	confidence	115	2930	8
090612	13:46	867508	real96	116	10578	3
090612	13:46	867508	real46	117	2492	4
090612	13:46	867508	real47	118	2494	2
090612	13:46	867508	real85	119	2648	4
090612	13:46	867508	confidence	120	2172	3
090612	13:46	867508	followup2	1	48049	1
090612	13:46	867508	followup1	2	24868	2
090612	14:31	8675307	article	1	11226	newspaper
090612	14:31	8675307	old	2	7474	child
090612	14:31	8675307	lost	3	4871	found
090612	14:31	8675307	prac2	1	15837	8
090612	14:31	8675307	prac4	2	6070	4
090612	14:31	8675307	prac3	3	6178	5
090612	14:31	8675307	prac7	4	9962	2
090612	14:31	8675307	prac5	5	4132	4
090612	14:31	8675307	prac8	6	8356	7
090612	14:31	8675307	prac1	7	3438	3
090612	14:31	8675307	prac6	8	3915	8
090612	14:31	8675307	real33	1	9804	4
090612	14:31	8675307	real35	2	5421	7
090612	14:31	8675307	real79	3	4763	2
090612	14:31	8675307	real18	4	3715	4
090612	14:31	8675307	confidence	5	12124	7
090612	14:31	8675307	real24	6	11520	4
090612	14:31	8675307	real54	7	4476	7
090612	14:31	8675307	real48	8	9543	2
090612	14:31	8675307	real6	9	15993	9
090612	14:31	8675307	confidence	10	5147	9
090612	14:31	8675307	real7	11	11236	4
090612	14:31	8675307	real68	12	4515	8
090612	14:31	8675307	real38	13	5949	4
090612	14:31	8675307	real58	14	5094	9
090612	14:31	8675307	confidence	15	2600	9
090612	14:31	8675307	real86	16	4350	8
090612	14:31	8675307	real17	17	3366	8
090612	14:31	8675307	real71	18	8101	8
090612	14:31	8675307	real66	19	2689	9
090612	14:31	8675307	confidence	20	4476	8
090612	14:31	8675307	real19	21	2119	9
090612	14:31	8675307	real67	22	8552	6
090612	14:31	8675307	real32	23	3746	8
090612	14:31	8675307	real43	24	5394	3
090612	14:31	8675307	confidence	25	4569	8
090612	14:31	8675307	real93	26	4857	4
090612	14:31	8675307	real15	27	5789	8
090612	14:31	8675307	real16	28	9133	5
090612	14:31	8675307	real61	29	6000	9
090612	14:31	8675307	confidence	30	5847	10
090612	14:31	8675307	real44	31	4163	6
090612	14:31	8675307	real88	32	5539	8
090612	14:31	8675307	real69	33	2996	9
090612	14:31	8675307	real34	34	4850	10
090612	14:31	8675307	confidence	35	3607	9
090612	14:31	8675307	real13	36	5677	6
090612	14:31	8675307	real56	37	5768	9
090612	14:31	8675307	real80	38	5161	7
090612	14:31	8675307	real36	39	3377	4
090612	14:31	8675307	confidence	40	2912	8
090612	14:31	8675307	real62	41	4793	10
090612	14:31	8675307	real75	42	4903	10
090612	14:31	8675307	real39	43	8114	8
090612	14:31	8675307	real26	44	9405	7
090612	14:31	8675307	confidence	45	3357	8
090612	14:31	8675307	real37	46	3413	10
090612	14:31	8675307	real90	47	3130	7
090612	14:31	8675307	real72	48	4779	5
090612	14:31	8675307	real30	49	3258	10
090612	14:31	8675307	confidence	50	2606	10
090612	14:31	8675307	real77	51	4986	9
090612	14:31	8675307	real59	52	5739	3
090612	14:31	8675307	real73	53	2909	10
090612	14:31	8675307	real89	54	3095	9
090612	14:31	8675307	confidence	55	2905	10
090612	14:31	8675307	real82	56	5323	7
090612	14:31	8675307	real94	57	5700	8
090612	14:31	8675307	real64	58	5623	9
090612	14:31	8675307	real20	59	8413	3
090612	14:31	8675307	confidence	60	3765	7
090612	14:31	8675307	real5	61	2916	10
090612	14:31	8675307	real40	62	9741	6
090612	14:31	8675307	real22	63	7823	5
090612	14:31	8675307	real25	64	8230	8
090612	14:31	8675307	confidence	65	6836	8
090612	14:31	8675307	real9	66	8002	8
090612	14:31	8675307	real53	67	3434	2
090612	14:31	8675307	real60	68	2983	10
090612	14:31	8675307	real92	69	5005	9
090612	14:31	8675307	confidence	70	2748	10
090612	14:31	8675307	real91	71	3268	3
090612	14:31	8675307	real8	72	4407	4
090612	14:31	8675307	real4	73	2326	10
090612	14:31	8675307	real49	74	3726	9
090612	14:31	8675307	confidence	75	2464	10
090612	14:31	8675307	real31	76	7091	4
090612	14:31	8675307	real55	77	2119	10
090612	14:31	8675307	real14	78	3912	8
090612	14:31	8675307	real42	79	7153	4
090612	14:31	8675307	confidence	80	3706	8
090612	14:31	8675307	real50	81	2389	10
090612	14:31	8675307	real12	82	7051	10
090612	14:31	8675307	real11	83	4504	7
090612	14:31	8675307	real65	84	4835	7
090612	14:31	8675307	confidence	85	3232	8
090612	14:31	8675307	real95	86	5300	8
090612	14:31	8675307	real52	87	8167	4
090612	14:31	8675307	real78	88	8928	5
090612	14:31	8675307	real81	89	5499	10
090612	14:31	8675307	confidence	90	3941	9
090612	14:31	8675307	real76	91	11470	5
090612	14:31	8675307	real45	92	5036	8
090612	14:31	8675307	real29	93	2754	10
090612	14:31	8675307	real83	94	4570	9
090612	14:31	8675307	confidence	95	3577	8
090612	14:31	8675307	real51	96	4223	8
090612	14:31	8675307	real74	97	6174	10
090612	14:31	8675307	real1	98	3861	2
090612	14:31	8675307	real63	99	2994	4
090612	14:31	8675307	confidence	100	5064	4
090612	14:31	8675307	real41	101	2428	10
090612	14:31	8675307	real57	102	4304	7
090612	14:31	8675307	real70	103	5130	6
090612	14:31	8675307	real10	104	5092	2
090612	14:31	8675307	confidence	105	4143	8
090612	14:31	8675307	real28	106	3864	9
090612	14:31	8675307	real27	107	5004	7
090612	14:31	8675307	real84	108	5034	9
090612	14:31	8675307	real87	109	2679	10
090612	14:31	8675307	confidence	110	3794	10
090612	14:31	8675307	real2	111	5184	7
090612	14:31	8675307	real3	112	3616	8
090612	14:31	8675307	real21	113	2149	10
090612	14:31	8675307	real23	114	4445	9
090612	14:31	8675307	confidence	115	2737	10
090612	14:31	8675307	real96	116	5248	1
090612	14:31	8675307	real46	117	2454	10
090612	14:31	8675307	real47	118	2834	9
090612	14:31	8675307	real85	119	3303	8
090612	14:31	8675307	confidence	120	2257	9
090612	14:31	8675307	followup2	1	37333	1
090612	14:31	8675307	followup1	2	19442	3
091012	09:23	8	old	1	9204	wise
091012	09:23	8	article	2	4461	paper
091012	09:23	8	lost	3	5641	forest
091012	09:23	8	prac1	1	12521	4
091012	09:23	8	prac7	2	6078	6
091012	09:23	8	prac2	3	7417	5
091012	09:23	8	prac5	4	4688	7
091012	09:23	8	prac4	5	5755	6
091012	09:23	8	prac3	6	3220	8
091012	09:23	8	prac6	7	6065	6
091012	09:23	8	prac8	8	6869	10
091012	09:23	8	real33	1	4361	7
091012	09:23	8	real35	2	4336	9
091012	09:23	8	real79	3	4745	8
091012	09:23	8	real18	4	3602	7
091012	09:23	8	confidence	5	7208	6
091012	09:23	8	real24	6	6391	6
091012	09:23	8	real54	7	6799	5
091012	09:23	8	real48	8	3078	9
091012	09:23	8	real6	9	11177	10
091012	09:23	8	confidence	10	2130	8
091012	09:23	8	real7	11	6954	6
091012	09:23	8	real68	12	4308	10
091012	09:23	8	real38	13	9574	8
091012	09:23	8	real58	14	4999	10
091012	09:23	8	confidence	15	3686	9
091012	09:23	8	real86	16	5097	8
091012	09:23	8	real17	17	7619	7
091012	09:23	8	real71	18	3922	10
091012	09:23	8	real66	19	3722	9
091012	09:23	8	confidence	20	1565	9
091012	09:23	8	real19	21	2140	10
091012	09:23	8	real67	22	4500	10
091012	09:23	8	real32	23	4463	8
091012	09:23	8	real43	24	4291	8
091012	09:23	8	confidence	25	3406	7
091012	09:23	8	real93	26	8764	9
091012	09:23	8	real15	27	5645	8
091012	09:23	8	real16	28	5242	7
091012	09:23	8	real61	29	5095	7
091012	09:23	8	confidence	30	2714	8
091012	09:23	8	real44	31	3995	6
091012	09:23	8	real88	32	4881	8
091012	09:23	8	real69	33	6948	8
091012	09:23	8	real34	34	2718	10
091012	09:23	8	confidence	35	2959	9
091012	09:23	8	real13	36	4086	7
091012	09:23	8	real56	37	8034	5
091012	09:23	8	real80	38	1976	9
091012	09:23	8	real36	39	5895	8
091012	09:23	8	confidence	40	2834	6
091012	09:23	8	real62	41	3974	5
091012	09:23	8	real75	42	5374	10
091012	09:23	8	real39	43	2910	10
091012	09:23	8	real26	44	4287	9
091012	09:23	8	confidence	45	2162	9
091012	09:23	8	real37	46	2761	10
091012	09:23	8	real90	47	6176	9
091012	09:23	8	real72	48	5872	9
091012	09:23	8	real30	49	4820	5
091012	09:23	8	confidence	50	1978	7
091012	09:23	8	real77	51	6096	5
091012	09:23	8	real59	52	4515	7
091012	09:23	8	real73	53	3165	7
091012	09:23	8	real89	54	4420	10
091012	09:23	8	confidence	55	2026	10
091012	09:23	8	real82	56	4847	6
091012	09:23	8	real94	57	3660	10
091012	09:23	8	real64	58	5487	10
091012	09:23	8	real20	59	5099	7
091012	09:23	8	confidence	60	2446	7
091012	09:23	8	real5	61	5873	5
091012	09:23	8	real40	62	4573	9
091012	09:23	8	real22	63	4677	6
091012	09:23	8	real25	64	4056	8
091012	09:23	8	confidence	65	3012	8
091012	09:23	8	real9	66	4690	10
091012	09:23	8	real53	67	4645	5
091012	09:23	8	real60	68	12193	5
091012	09:23	8	real92	69	3890	9
091012	09:23	8	confidence	70	2133	8
091012	09:23	8	real91	71	4005	7
091012	09:23	8	real8	72	3515	5
091012	09:23	8	real4	73	3613	7
091012	09:23	8	real49	74	3803	8
091012	09:23	8	confidence	75	2809	6
091012	09:23	8	real31	76	3567	6
091012	09:23	8	real55	77	5566	8
091012	09:23	8	real14	78	3406	9
091012	09:23	8	real42	79	2997	5
091012	09:23	8	confidence	80	1739	7
091012	09:23	8	real50	81	3299	10
091012	09:23	8	real12	82	3980	10
091012	09:23	8	real11	83	5012	8
091012	09:23	8	real65	84	3017	7
091012	09:23	8	confidence	85	1519	7
091012	09:23	8	real95	86	3959	9
091012	09:23	8	real52	87	2503	10
091012	09:23	8	real78	88	5041	5
091012	09:23	8	real81	89	4902	8
091012	09:23	8	confidence	90	3329	9
091012	09:23	8	real76	91	4450	6
091012	09:23	8	real45	92	7990	10
091012	09:23	8	real29	93	2838	8
091012	09:23	8	real83	94	5283	10
091012	09:23	8	confidence	95	1310	9
091012	09:23	8	real51	96	4535	9
091012	09:23	8	real74	97	2808	9
091012	09:23	8	real1	98	4958	10
091012	09:23	8	real63	99	4695	9
091012	09:23	8	confidence	100	1786	9
091012	09:23	8	real41	101	6544	4
091012	09:23	8	real57	102	6945	10
091012	09:23	8	real70	103	6002	7
091012	09:23	8	real10	104	3409	3
091012	09:23	8	confidence	105	2975	7
091012	09:23	8	real28	106	3174	8
091012	09:23	8	real27	107	2870	8
091012	09:23	8	real84	108	6033	10
091012	09:23	8	real87	109	5791	4
091012	09:23	8	confidence	110	2934	9
091012	09:23	8	real2	111	7359	4
091012	09:23	8	real3	112	5159	7
091012	09:23	8	real21	113	2775	4
091012	09:23	8	real23	114	2982	10
091012	09:23	8	confidence	115	2285	9
091012	09:23	8	real96	116	6095	8
091012	09:23	8	real46	117	11986	4
091012	09:23	8	real47	118	1892	10
091012	09:23	8	real85	119	5894	10
091012	09:23	8	confidence	120	2193	8
091012	09:23	8	followup2	1	21204	1
091012	09:23	8	followup1	2	15728	3
091012	11:47	34543	lost	1	7727	LOST
091012	11:47	34543	article	2	4850	ARTICLE
091012	11:47	34543	old	3	6782	OLD
091012	11:47	34543	prac7	1	17642	9
091012	11:47	34543	prac8	2	9307	4
091012	11:47	34543	prac6	3	17111	1
091012	11:47	34543	prac1	4	8085	8
091012	11:47	34543	prac2	5	6489	6
091012	11:47	34543	prac5	6	3645	9
091012	11:47	34543	prac3	7	9113	10
091012	11:47	34543	prac4	8	18868	2
091012	11:47	34543	real33	1	12688	4
091012	11:47	34543	real35	2	4254	10
091012	11:47	34543	real79	3	16586	1
091012	11:47	34543	real18	4	12669	10
091012	11:47	34543	confidence	5	13804	2
091012	11:47	34543	real24	6	7445	10
091012	11:47	34543	real54	7	5059	8
091012	11:47	34543	real48	8	4663	8
091012	11:47	34543	real6	9	5315	9
091012	11:47	34543	confidence	10	2005	3
091012	11:47	34543	real7	11	15202	9
091012	11:47	34543	real68	12	5013	9
091012	11:47	34543	real38	13	4051	9
091012	11:47	34543	real58	14	8663	9
091012	11:47	34543	confidence	15	2132	3
091012	11:47	34543	real86	16	14964	10
091012	11:47	34543	real17	17	3823	6
091012	11:47	34543	real71	18	12557	6
091012	11:47	34543	real66	19	4223	7
091012	11:47	34543	confidence	20	2093	3
091012	11:47	34543	real19	21	9175	5
091012	11:47	34543	real67	22	15408	5
091012	11:47	34543	real32	23	8321	5
091012	11:47	34543	real43	24	24404	8
091012	11:47	34543	confidence	25	1872	3
091012	11:47	34543	real93	26	4211	7
091012	11:47	34543	real15	27	11129	9
091012	11:47	34543	real16	28	3876	7
091012	11:47	34543	real61	29	7455	5
091012	11:47	34543	confidence	30	1596	3
091012	11:47	34543	real44	31	7418	5
091012	11:47	34543	real88	32	9680	6
091012	11:47	34543	real69	33	7973	6
091012	11:47	34543	real34	34	4862	5
091012	11:47	34543	confidence	35	1218	3
091012	11:47	34543	real13	36	7439	8
091012	11:47	34543	real56	37	5285	6
091012	11:47	34543	real80	38	10592	6
091012	11:47	34543	real36	39	6552	5
091012	11:47	34543	confidence	40	3098	3
091012	11:47	34543	real62	41	4436	8
091012	11:47	34543	real75	42	3057	8
091012	11:47	34543	real39	43	5805	6
091012	11:47	34543	real26	44	3043	6
091012	11:47	34543	confidence	45	2168	3
091012	11:47	34543	real37	46	12558	9
091012	11:47	34543	real90	47	3833	3
091012	11:47	34543	real72	48	2446	6
091012	11:47	34543	real30	49	55096	6
091012	11:47	34543	confidence	50	3059	2
091012	11:47	34543	real77	51	2615	6
091012	11:47	34543	real59	52	47699	8
091012	11:47	34543	real73	53	2580	6
091012	11:47	34543	real89	54	3602	9
091012	11:47	34543	confidence	55	2273	2
091012	11:47	34543	real82	56	2476	10
091012	11:47	34543	real94	57	3863	8
091012	11:47	34543	real64	58	4346	10
091012	11:47	34543	real20	59	3931	9
091012	11:47	34543	confidence	60	1676	2
091012	11:47	34543	real5	61	4031	7
091012	11:47	34543	real40	62	5691	7
091012	11:47	34543	real22	63	9871	2
091012	11:47	34543	real25	64	8900	9
091012	11:47	34543	confidence	65	2184	2
091012	11:47	34543	real9	66	6294	3
091012	11:47	34543	real53	67	6066	8
091012	11:47	34543	real60	68	2478	6
091012	11:47	34543	real92	69	8176	6
091012	11:47	34543	confidence	70	1233	2
091012	11:47	34543	real91	71	19420	3
091012	11:47	34543	real8	72	3999	3
091012	11:47	34543	real4	73	5685	9
091012	11:47	34543	real49	74	33880	3
091012	11:47	34543	confidence	75	3013	3
091012	11:47	34543	real31	76	3787	9
091012	11:47	34543	real55	77	2794	10
091012	11:47	34543	real14	78	5207	2
091012	11:47	34543	real42	79	33941	3
091012	11:47	34543	confidence	80	2096	3
091012	11:47	34543	real50	81	7505	10
091012	11:47	34543	real12	82	17083	4
091012	11:47	34543	real11	83	7868	10
091012	11:47	34543	real65	84	6809	2
091012	11:47	34543	confidence	85	3951	4
091012	11:47	34543	real95	86	9775	10
091012	11:47	34543	real52	87	1816	10
091012	11:47	34543	real78	88	4365	5
091012	11:47	34543	real81	89	1885	10
091012	11:47	34543	confidence	90	1607	4
091012	11:47	34543	real76	91	4285	8
091012	11:47	34543	real45	92	24151	4
091012	11:47	34543	real29	93	1759	10
091012	11:47	34543	real83	94	4414	8
091012	11:47	34543	confidence	95	2508	3
091012	11:47	34543	real51	96	19909	10
091012	11:47	34543	real74	97	1644	10
091012	11:47	34543	real1	98	2911	8
091012	11:47	34543	real63	99	1817	10
091012	11:47	34543	confidence	100	1318	4
091012	11:47	34543	real41	101	1863	10
091012	11:47	34543	real57	102	3402	3
091012	11:47	34543	real70	103	3704	10
091012	11:47	34543	real10	104	24505	9
091012	11:47	34543	confidence	105	1714	4
091012	11:47	34543	real28	106	24650	4
091012	11:47	34543	real27	107	2590	10
091012	11:47	34543	real84	108	2068	8
091012	11:47	34543	real87	109	1167	10
091012	11:47	34543	confidence	110	1190	4
091012	11:47	34543	real2	111	4292	9
091012	11:47	34543	real3	112	2519	9
091012	11:47	34543	real21	113	1632	10
091012	11:47	34543	real23	114	2108	10
091012	11:47	34543	confidence	115	1390	4
091012	11:47	34543	real96	116	3932	10
091012	11:47	34543	real46	117	2245	10
091012	11:47	34543	real47	118	2793	9
091012	11:47	34543	real85	119	4367	9
091012	11:47	34543	confidence	120	1407	4
091012	11:47	34543	followup1	1	10622	4
091012	11:47	34543	followup2	2	1911	4
091012	12:55	54	article	1	7011	newspaper
091012	12:55	54	old	2	7674	man
091012	12:55	54	lost	3	3703	dog
091012	12:55	54	prac3	1	7037	7
091012	12:55	54	prac5	2	5115	7
091012	12:55	54	prac1	3	4213	5
091012	12:55	54	prac7	4	6082	6
091012	12:55	54	prac4	5	3702	8
091012	12:55	54	prac8	6	5152	9
091012	12:55	54	prac6	7	5129	6
091012	12:55	54	prac2	8	4890	8
091012	12:55	54	real33	1	4317	7
091012	12:55	54	real35	2	4047	7
091012	12:55	54	real79	3	7203	4
091012	12:55	54	real18	4	6858	5
091012	12:55	54	confidence	5	7231	6
091012	12:55	54	real24	6	5285	6
091012	12:55	54	real54	7	3992	8
091012	12:55	54	real48	8	5079	5
091012	12:55	54	real6	9	6099	7
091012	12:55	54	confidence	10	6126	5
091012	12:55	54	real7	11	4824	8
091012	12:55	54	real68	12	5110	4
091012	12:55	54	real38	13	4872	5
091012	12:55	54	real58	14	3916	3
091012	12:55	54	confidence	15	3869	4
091012	12:55	54	real86	16	7777	4
091012	12:55	54	real17	17	4697	6
091012	12:55	54	real71	18	6547	8
091012	12:55	54	real66	19	3413	8
091012	12:55	54	confidence	20	3139	8
091012	12:55	54	real19	21	5267	9
091012	12:55	54	real67	22	4295	8
091012	12:55	54	real32	23	5361	3
091012	12:55	54	real43	24	5601	6
091012	12:55	54	confidence	25	4312	5
091012	12:55	54	real93	26	7537	7
091012	12:55	54	real15	27	6108	8
091012	12:55	54	real16	28	5271	5
091012	12:55	54	real61	29	5251	8
091012	12:55	54	confidence	30	4896	6
091012	12:55	54	real44	31	6746	2
091012	12:55	54	real88	32	5739	4
091012	12:55	54	real69	33	5524	9
091012	12:55	54	real34	34	5967	7
091012	12:55	54	confidence	35	2599	7
091012	12:55	54	real13	36	4245	6
091012	12:55	54	real56	37	2993	8
091012	12:55	54	real80	38	3247	8
091012	12:55	54	real36	39	3651	2
091012	12:55	54	confidence	40	3159	7
091012	12:55	54	real62	41	3783	8
091012	12:55	54	real75	42	5598	6
091012	12:55	54	real39	43	4765	7
091012	12:55	54	real26	44	5876	3
091012	12:55	54	confidence	45	3256	7
091012	12:55	54	real37	46	6836	6
091012	12:55	54	real90	47	4498	5
091012	12:55	54	real72	48	4461	6
091012	12:55	54	real30	49	3808	7
091012	12:55	54	confidence	50	3502	5
091012	12:55	54	real77	51	3369	8
091012	12:55	54	real59	52	3872	4
091012	12:55	54	real73	53	2860	9
091012	12:55	54	real89	54	4799	7
091012	12:55	54	confidence	55	2981	7
091012	12:55	54	real82	56	7604	6
091012	12:55	54	real94	57	3003	8
091012	12:55	54	real64	58	3113	8
091012	12:55	54	real20	59	3915	4
091012	12:55	54	confidence	60	3956	6
091012	12:55	54	real5	61	12973	10
091012	12:55	54	real40	62	7910	6
091012	12:55	54	real22	63	3777	6
091012	12:55	54	real25	64	3488	7
091012	12:55	54	confidence	65	2771	8
091012	12:55	54	real9	66	4714	6
091012	12:55	54	real53	67	11140	6
091012	12:55	54	real60	68	4831	5
091012	12:55	54	real92	69	2556	8
091012	12:55	54	confidence	70	3148	9
091012	12:55	54	real91	71	5948	3
091012	12:55	54	real8	72	4645	2
091012	12:55	54	real4	73	2962	9
091012	12:55	54	real49	74	3825	7
091012	12:55	54	confidence	75	1774	7
091012	12:55	54	real31	76	7357	1
091012	12:55	54	real55	77	3367	7
091012	12:55	54	real14	78	4942	9
091012	12:55	54	real42	79	5471	6
091012	12:55	54	confidence	80	2939	6
091012	12:55	54	real50	81	2628	8
091012	12:55	54	real12	82	2776	8
091012	12:55	54	real11	83	2543	9
091012	12:55	54	real65	84	3519	4
091012	12:55	54	confidence	85	3776	8
091012	12:55	54	real95	86	2800	8
091012	12:55	54	real52	87	3662	2
091012	12:55	54	real78	88	5201	1
091012	12:55	54	real81	89	4416	8
091012	12:55	54	confidence	90	2510	8
091012	12:55	54	real76	91	4967	6
091012	12:55	54	real45	92	3471	6
091012	12:55	54	real29	93	2539	8
091012	12:55	54	real83	94	4211	4
091012	12:55	54	confidence	95	7513	5
091012	12:55	54	real51	96	5132	2
091012	12:55	54	real74	97	2725	7
091012	12:55	54	real1	98	2702	7
091012	12:55	54	real63	99	4256	2
091012	12:55	54	confidence	100	2789	8
091012	12:55	54	real41	101	2299	8
091012	12:55	54	real57	102	5581	3
091012	12:55	54	real70	103	3260	7
091012	12:55	54	real10	104	3600	1
091012	12:55	54	confidence	105	3678	6
091012	12:55	54	real28	106	4912	8
091012	12:55	54	real27	107	4642	1
091012	12:55	54	real84	108	6207	1
091012	12:55	54	real87	109	3518	8
091012	12:55	54	confidence	110	4008	9
091012	12:55	54	real2	111	4717	3
091012	12:55	54	real3	112	3120	3
091012	12:55	54	real21	113	4578	10
091012	12:55	54	real23	114	9104	4
091012	12:55	54	confidence	115	3156	5
091012	12:55	54	real96	116	2932	2
091012	12:55	54	real46	117	2596	9
091012	12:55	54	real47	118	3522	5
091012	12:55	54	real85	119	4036	7
091012	12:55	54	confidence	120	2689	6
091012	12:55	54	followup2	1	16435	1
091012	12:55	54	followup1	2	9621	3
091112	13:24	50	lost	1	13890	found
091112	13:24	50	old	2	9664	grandparents
091112	13:24	50	article	3	6638	story
091112	13:24	50	prac3	1	10466	6
091112	13:24	50	prac1	2	8040	8
091112	13:24	50	prac4	3	4670	9
091112	13:24	50	prac5	4	3946	4
091112	13:24	50	prac8	5	3386	10
091112	13:24	50	prac7	6	3377	5
091112	13:24	50	prac6	7	3320	9
091112	13:24	50	prac2	8	2250	9
091112	13:24	50	real33	1	3905	8
091112	13:24	50	real35	2	2739	9
091112	13:24	50	real79	3	2684	5
091112	13:24	50	real18	4	3487	4
091112	13:24	50	confidence	5	7210	6
091112	13:24	50	real24	6	4424	8
091112	13:24	50	real54	7	3734	2
091112	13:24	50	real48	8	3215	5
091112	13:24	50	real6	9	2004	10
091112	13:24	50	confidence	10	4074	10
091112	13:24	50	real7	11	4300	7
091112	13:24	50	real68	12	3776	9
091112	13:24	50	real38	13	2911	6
091112	13:24	50	real58	14	5872	9
091112	13:24	50	confidence	15	3157	7
091112	13:24	50	real86	16	3197	6
091112	13:24	50	real17	17	2883	8
091112	13:24	50	real71	18	2637	8
091112	13:24	50	real66	19	1802	9
091112	13:24	50	confidence	20	3991	6
091112	13:24	50	real19	21	2534	10
091112	13:24	50	real67	22	3135	9
091112	13:24	50	real32	23	6695	4
091112	13:24	50	real43	24	4107	6
091112	13:24	50	confidence	25	2445	5
091112	13:24	50	real93	26	6913	9
091112	13:24	50	real15	27	4787	4
091112	13:24	50	real16	28	3114	5
091112	13:24	50	real61	29	1420	9
091112	13:24	50	confidence	30	1776	5
091112	13:24	50	real44	31	2967	3
091112	13:24	50	real88	32	2959	4
091112	13:24	50	real69	33	2983	7
091112	13:24	50	real34	34	4573	9
091112	13:24	50	confidence	35	1845	7
091112	13:24	50	real13	36	5705	5
091112	13:24	50	real56	37	2180	9
091112	13:24	50	real80	38	5570	7
091112	13:24	50	real36	39	5810	3
091112	13:24	50	confidence	40	2080	4
091112	13:24	50	real62	41	2450	8
091112	13:24	50	real75	42	5862	4
091112	13:24	50	real39	43	2658	6
091112	13:24	50	real26	44	3158	6
091112	13:24	50	confidence	45	2030	5
091112	13:24	50	real37	46	3155	8
091112	13:24	50	real90	47	1683	8
091112	13:24	50	real72	48	1621	7
091112	13:24	50	real30	49	3970	7
091112	13:24	50	confidence	50	2529	6
091112	13:24	50	real77	51	2426	10
091112	13:24	50	real59	52	3271	6
091112	13:24	50	real73	53	2762	10
091112	13:24	50	real89	54	2553	5
091112	13:24	50	confidence	55	953	5
091112	13:24	50	real82	56	2216	6
091112	13:24	50	real94	57	5214	6
091112	13:24	50	real64	58	5451	3
091112	13:24	50	real20	59	2368	7
091112	13:24	50	confidence	60	2216	6
091112	13:24	50	real5	61	3541	9
091112	13:24	50	real40	62	2861	4
091112	13:24	50	real22	63	2904	6
091112	13:24	50	real25	64	2979	4
091112	13:24	50	confidence	65	1393	4
091112	13:24	50	real9	66	4927	2
091112	13:24	50	real53	67	2992	1
091112	13:24	50	real60	68	5231	5
091112	13:24	50	real92	69	2276	8
091112	13:24	50	confidence	70	1999	6
091112	13:24	50	real91	71	3085	6
091112	13:24	50	real8	72	2944	3
091112	13:24	50	real4	73	2464	10
091112	13:24	50	real49	74	4163	5
091112	13:24	50	confidence	75	1787	5
091112	13:24	50	real31	76	3609	4
091112	13:24	50	real55	77	1503	9
091112	13:24	50	real14	78	1912	9
091112	13:24	50	real42	79	3121	7
091112	13:24	50	confidence	80	1715	5
091112	13:24	50	real50	81	4323	8
091112	13:24	50	real12	82	4045	6
091112	13:24	50	real11	83	1753	6
091112	13:24	50	real65	84	2513	5
091112	13:24	50	confidence	85	986	5
091112	13:24	50	real95	86	3080	6
091112	13:24	50	real52	87	3947	4
091112	13:24	50	real78	88	4578	4
091112	13:24	50	real81	89	2170	8
091112	13:24	50	confidence	90	1465	6
091112	13:24	50	real76	91	4084	6
091112	13:24	50	real45	92	3767	1
091112	13:24	50	real29	93	2735	7
091112	13:24	50	real83	94	4495	6
091112	13:24	50	confidence	95	2785	4
091112	13:24	50	real51	96	1712	7
091112	13:24	50	real74	97	1817	9
091112	13:24	50	real1	98	4358	5
091112	13:24	50	real63	99	4126	6
091112	13:24	50	confidence	100	3111	3
091112	13:24	50	real41	101	2689	8
091112	13:24	50	real57	102	4091	4
091112	13:24	50	real70	103	2598	8
091112	13:24	50	real10	104	8324	3
091112	13:24	50	confidence	105	1775	3
091112	13:24	50	real28	106	4198	5
091112	13:24	50	real27	107	1620	4
091112	13:24	50	real84	108	4001	3
091112	13:24	50	real87	109	3862	9
091112	13:24	50	confidence	110	2242	9
091112	13:24	50	real2	111	3151	5
091112	13:24	50	real3	112	2823	5
091112	13:24	50	real21	113	4716	7
091112	13:24	50	real23	114	2758	8
091112	13:24	50	confidence	115	1693	6
091112	13:24	50	real96	116	5600	5
091112	13:24	50	real46	117	2575	10
091112	13:24	50	real47	118	4318	6
091112	13:24	50	real85	119	2775	5
091112	13:24	50	confidence	120	2359	4
091112	13:24	50	followup1	1	26855	2
091112	13:24	50	followup2	2	29002	1
