date	time	subject	trialcode	trialnum	latency	response
091212	14:59	525922929	article	1	13717	newspaper
091212	14:59	525922929	lost	2	9515	tv show
091212	14:59	525922929	old	3	8711	man
091212	14:59	525922929	prac6	1	12177	5
091212	14:59	525922929	prac3	2	3411	4
091212	14:59	525922929	prac1	3	3792	4
091212	14:59	525922929	prac2	4	2391	9
091212	14:59	525922929	prac4	5	2814	9
091212	14:59	525922929	prac8	6	4867	7
091212	14:59	525922929	prac5	7	5711	4
091212	14:59	525922929	prac7	8	1961	5
091212	14:59	525922929	real33	1	5694	7
091212	14:59	525922929	real35	2	6552	5
091212	14:59	525922929	real79	3	1554	5
091212	14:59	525922929	real18	4	3633	7
091212	14:59	525922929	confidence	5	6814	7
091212	14:59	525922929	real24	6	6645	6
091212	14:59	525922929	real54	7	6634	8
091212	14:59	525922929	real48	8	3368	5
091212	14:59	525922929	real6	9	2447	7
091212	14:59	525922929	confidence	10	5355	7
091212	14:59	525922929	real7	11	2372	9
091212	14:59	525922929	real68	12	3059	7
091212	14:59	525922929	real38	13	4671	6
091212	14:59	525922929	real58	14	5659	7
091212	14:59	525922929	confidence	15	4199	7
091212	14:59	525922929	real86	16	4630	8
091212	14:59	525922929	real17	17	2371	8
091212	14:59	525922929	real71	18	2082	8
091212	14:59	525922929	real66	19	1956	8
091212	14:59	525922929	confidence	20	1324	8
091212	14:59	525922929	real19	21	1781	8
091212	14:59	525922929	real67	22	1611	7
091212	14:59	525922929	real32	23	2392	9
091212	14:59	525922929	real43	24	3590	6
091212	14:59	525922929	confidence	25	1941	6
091212	14:59	525922929	real93	26	2444	8
091212	14:59	525922929	real15	27	2289	5
091212	14:59	525922929	real16	28	3539	6
091212	14:59	525922929	real61	29	2077	9
091212	14:59	525922929	confidence	30	2015	8
091212	14:59	525922929	real44	31	3892	8
091212	14:59	525922929	real88	32	2735	6
091212	14:59	525922929	real69	33	1944	7
091212	14:59	525922929	real34	34	3447	10
091212	14:59	525922929	confidence	35	2595	10
091212	14:59	525922929	real13	36	1841	8
091212	14:59	525922929	real56	37	2422	7
091212	14:59	525922929	real80	38	2651	8
091212	14:59	525922929	real36	39	3558	6
091212	14:59	525922929	confidence	40	3087	5
091212	14:59	525922929	real62	41	1665	7
091212	14:59	525922929	real75	42	3348	8
091212	14:59	525922929	real39	43	3236	8
091212	14:59	525922929	real26	44	2841	6
091212	14:59	525922929	confidence	45	2038	7
091212	14:59	525922929	real37	46	5346	8
091212	14:59	525922929	real90	47	1651	7
091212	14:59	525922929	real72	48	2854	8
091212	14:59	525922929	real30	49	1883	9
091212	14:59	525922929	confidence	50	2277	7
091212	14:59	525922929	real77	51	2328	8
091212	14:59	525922929	real59	52	2600	6
091212	14:59	525922929	real73	53	2342	8
091212	14:59	525922929	real89	54	4254	8
091212	14:59	525922929	confidence	55	1787	8
091212	14:59	525922929	real82	56	6929	8
091212	14:59	525922929	real94	57	2131	8
091212	14:59	525922929	real64	58	2012	9
091212	14:59	525922929	real20	59	3841	9
091212	14:59	525922929	confidence	60	3758	8
091212	14:59	525922929	real5	61	6630	10
091212	14:59	525922929	real40	62	2900	9
091212	14:59	525922929	real22	63	1886	9
091212	14:59	525922929	real25	64	3568	7
091212	14:59	525922929	confidence	65	1711	8
091212	14:59	525922929	real9	66	2512	9
091212	14:59	525922929	real53	67	4466	9
091212	14:59	525922929	real60	68	4781	7
091212	14:59	525922929	real92	69	2565	8
091212	14:59	525922929	confidence	70	1860	8
091212	14:59	525922929	real91	71	9703	8
091212	14:59	525922929	real8	72	3860	6
091212	14:59	525922929	real4	73	3079	7
091212	14:59	525922929	real49	74	3410	10
091212	14:59	525922929	confidence	75	4111	9
091212	14:59	525922929	real31	76	3665	7
091212	14:59	525922929	real55	77	3045	8
091212	14:59	525922929	real14	78	4537	9
091212	14:59	525922929	real42	79	4041	8
091212	14:59	525922929	confidence	80	2847	6
091212	14:59	525922929	real50	81	1579	7
091212	14:59	525922929	real12	82	2425	9
091212	14:59	525922929	real11	83	7374	9
091212	14:59	525922929	real65	84	3031	7
091212	14:59	525922929	confidence	85	2340	6
091212	14:59	525922929	real95	86	3468	9
091212	14:59	525922929	real52	87	4624	5
091212	14:59	525922929	real78	88	9293	6
091212	14:59	525922929	real81	89	2090	7
091212	14:59	525922929	confidence	90	2140	6
091212	14:59	525922929	real76	91	2364	8
091212	14:59	525922929	real45	92	2580	6
091212	14:59	525922929	real29	93	7162	8
091212	14:59	525922929	real83	94	4483	8
091212	14:59	525922929	confidence	95	2774	9
091212	14:59	525922929	real51	96	2005	8
091212	14:59	525922929	real74	97	1483	9
091212	14:59	525922929	real1	98	1661	10
091212	14:59	525922929	real63	99	1784	9
091212	14:59	525922929	confidence	100	2374	8
091212	14:59	525922929	real41	101	2437	7
091212	14:59	525922929	real57	102	3050	9
091212	14:59	525922929	real70	103	9502	8
091212	14:59	525922929	real10	104	2546	4
091212	14:59	525922929	confidence	105	2018	8
091212	14:59	525922929	real28	106	3247	9
091212	14:59	525922929	real27	107	5851	8
091212	14:59	525922929	real84	108	4384	7
091212	14:59	525922929	real87	109	1519	8
091212	14:59	525922929	confidence	110	1888	8
091212	14:59	525922929	real2	111	3490	5
091212	14:59	525922929	real3	112	3949	5
091212	14:59	525922929	real21	113	4837	9
091212	14:59	525922929	real23	114	4163	9
091212	14:59	525922929	confidence	115	1739	10
091212	14:59	525922929	real96	116	3411	5
091212	14:59	525922929	real46	117	2128	9
091212	14:59	525922929	real47	118	1984	8
091212	14:59	525922929	real85	119	2655	8
091212	14:59	525922929	confidence	120	1931	7
091212	14:59	525922929	followup1	1	54630	4
091212	14:59	525922929	followup2	2	21708	1
091312	12:01	4566	lost	1	7985	found
091312	12:01	4566	article	2	6250	newspaper
091312	12:01	4566	old	3	5143	young
091312	12:01	4566	prac3	1	13355	6
091312	12:01	4566	prac2	2	5023	8
091312	12:01	4566	prac4	3	4389	4
091312	12:01	4566	prac1	4	7036	4
091312	12:01	4566	prac7	5	5370	5
091312	12:01	4566	prac6	6	5562	9
091312	12:01	4566	prac5	7	4755	4
091312	12:01	4566	prac8	8	3899	8
091312	12:01	4566	real33	1	13253	9
091312	12:01	4566	real35	2	4965	6
091312	12:01	4566	real79	3	6133	4
091312	12:01	4566	real18	4	4575	5
091312	12:01	4566	confidence	5	5751	5
091312	12:01	4566	real24	6	6439	9
091312	12:01	4566	real54	7	10493	7
091312	12:01	4566	real48	8	7408	6
091312	12:01	4566	real6	9	5872	9
091312	12:01	4566	confidence	10	2157	8
091312	12:01	4566	real7	11	7061	7
091312	12:01	4566	real68	12	7793	5
091312	12:01	4566	real38	13	4889	8
091312	12:01	4566	real58	14	7212	8
091312	12:01	4566	confidence	15	1651	7
091312	12:01	4566	real86	16	5638	6
091312	12:01	4566	real17	17	5676	8
091312	12:01	4566	real71	18	4799	7
091312	12:01	4566	real66	19	6574	4
091312	12:01	4566	confidence	20	2983	3
091312	12:01	4566	real19	21	5613	8
091312	12:01	4566	real67	22	9275	8
091312	12:01	4566	real32	23	6080	2
091312	12:01	4566	real43	24	7212	4
091312	12:01	4566	confidence	25	2443	6
091312	12:01	4566	real93	26	4839	6
091312	12:01	4566	real15	27	10340	5
091312	12:01	4566	real16	28	5759	4
091312	12:01	4566	real61	29	4455	9
091312	12:01	4566	confidence	30	2835	8
091312	12:01	4566	real44	31	14071	4
091312	12:01	4566	real88	32	9583	4
091312	12:01	4566	real69	33	8688	5
091312	12:01	4566	real34	34	6380	7
091312	12:01	4566	confidence	35	2276	7
091312	12:01	4566	real13	36	4070	7
091312	12:01	4566	real56	37	2138	8
091312	12:01	4566	real80	38	26562	7
091312	12:01	4566	real36	39	4090	5
091312	12:01	4566	confidence	40	1837	5
091312	12:01	4566	real62	41	3041	7
091312	12:01	4566	real75	42	5662	7
091312	12:01	4566	real39	43	4138	3
091312	12:01	4566	real26	44	6067	4
091312	12:01	4566	confidence	45	3591	6
091312	12:01	4566	real37	46	5294	3
091312	12:01	4566	real90	47	7713	4
091312	12:01	4566	real72	48	7212	6
091312	12:01	4566	real30	49	3963	9
091312	12:01	4566	confidence	50	2114	8
091312	12:01	4566	real77	51	5491	7
091312	12:01	4566	real59	52	5535	4
091312	12:01	4566	real73	53	2104	9
091312	12:01	4566	real89	54	3106	8
091312	12:01	4566	confidence	55	4428	9
091312	12:01	4566	real82	56	7465	6
091312	12:01	4566	real94	57	4678	7
091312	12:01	4566	real64	58	2209	8
091312	12:01	4566	real20	59	2911	8
091312	12:01	4566	confidence	60	2680	9
091312	12:01	4566	real5	61	3987	8
091312	12:01	4566	real40	62	2066	8
091312	12:01	4566	real22	63	3453	4
091312	12:01	4566	real25	64	3793	5
091312	12:01	4566	confidence	65	2391	6
091312	12:01	4566	real9	66	4318	7
091312	12:01	4566	real53	67	5575	5
091312	12:01	4566	real60	68	3023	6
091312	12:01	4566	real92	69	2316	9
091312	12:01	4566	confidence	70	1525	8
091312	12:01	4566	real91	71	10670	4
091312	12:01	4566	real8	72	4724	3
091312	12:01	4566	real4	73	2382	9
091312	12:01	4566	real49	74	3701	8
091312	12:01	4566	confidence	75	2391	7
091312	12:01	4566	real31	76	7197	5
091312	12:01	4566	real55	77	4149	8
091312	12:01	4566	real14	78	2837	7
091312	12:01	4566	real42	79	4994	4
091312	12:01	4566	confidence	80	2016	5
091312	12:01	4566	real50	81	1741	9
091312	12:01	4566	real12	82	2902	7
091312	12:01	4566	real11	83	5591	6
091312	12:01	4566	real65	84	4623	5
091312	12:01	4566	confidence	85	1461	6
091312	12:01	4566	real95	86	6024	6
091312	12:01	4566	real52	87	3510	5
091312	12:01	4566	real78	88	4007	7
091312	12:01	4566	real81	89	2102	9
091312	12:01	4566	confidence	90	1760	7
091312	12:01	4566	real76	91	5215	4
091312	12:01	4566	real45	92	4949	5
091312	12:01	4566	real29	93	2270	9
091312	12:01	4566	real83	94	2513	7
091312	12:01	4566	confidence	95	1746	7
091312	12:01	4566	real51	96	6202	5
091312	12:01	4566	real74	97	2137	8
091312	12:01	4566	real1	98	4161	5
091312	12:01	4566	real63	99	1977	4
091312	12:01	4566	confidence	100	2351	4
091312	12:01	4566	real41	101	2391	7
091312	12:01	4566	real57	102	3478	7
091312	12:01	4566	real70	103	4072	4
091312	12:01	4566	real10	104	5788	2
091312	12:01	4566	confidence	105	3484	9
091312	12:01	4566	real28	106	11726	7
091312	12:01	4566	real27	107	3794	6
091312	12:01	4566	real84	108	8608	4
091312	12:01	4566	real87	109	1848	9
091312	12:01	4566	confidence	110	1803	9
091312	12:01	4566	real2	111	5896	3
091312	12:01	4566	real3	112	2907	6
091312	12:01	4566	real21	113	2022	9
091312	12:01	4566	real23	114	3058	7
091312	12:01	4566	confidence	115	1478	6
091312	12:01	4566	real96	116	4465	5
091312	12:01	4566	real46	117	1613	9
091312	12:01	4566	real47	118	2450	7
091312	12:01	4566	real85	119	5541	4
091312	12:01	4566	confidence	120	3102	8
091312	12:01	4566	followup1	1	18919	3
091312	12:01	4566	followup2	2	19789	1
