date	time	subject	trialcode	trialnum	latency	response
070109	14:54	750	JAPR17	1	16434	4
070109	14:54	750	PR17 emerald	2	13530	stuso
070109	14:54	750	JAPR27	3	11298	6
070109	14:54	750	PR27 wheat	4	28717	bro
070109	14:54	750	JAPR07	5	14760	5
070109	14:54	750	PR07 bog	6	10466	*98u
070109	14:54	750	JAPR23	7	16239	3
070109	14:54	750	PR23 companion	8	4507	stut
070109	14:54	750	JAPR06	9	14043	5
070109	14:54	750	PR06 beast	10	6386	747uruty
070109	14:54	750	JAPR09	11	5958	1
070109	14:54	750	PR09 album	12	7237	=--0884893
070109	14:54	750	JAPR21	13	6454	1
070109	14:54	750	PR21 innocence	14	6415	stay
070109	14:54	750	JAPR01	15	10388	4
070109	14:54	750	PR01 cash	16	12326	tonight
070109	14:54	750	JAPR11	17	10388	8
070109	14:54	750	PR11 ounce	18	6892	fun
070109	14:54	750	JAPR25	19	7947	4
070109	14:54	750	PR25 saliva	20	12315	enzime
070109	14:54	750	JAPR30	21	6064	4
070109	14:54	750	PR30 maiden	22	6222	who
070109	14:54	750	JAPR03	23	7644	8
070109	14:54	750	PR03 acre	24	10667	0
070109	14:54	750	JAPR13	25	7380	3
070109	14:54	750	PR13 ambition	26	4659	ambition
070109	14:54	750	JAPR04	27	4587	4
070109	14:54	750	PR04 diaper	28	6887	discipline
070109	14:54	750	JAUR53	1	9469	5
070109	14:54	750	UR53 hell	2	2063	0
070109	14:54	750	JAUR13	3	8310	9
070109	14:54	750	UR13 almanac	4	7239	falacy
070109	14:54	750	JAHL07	5	9857	8
070109	14:54	750	HL07 king	6	3245	stay
070109	14:54	750	JALH05	7	4911	4
070109	14:54	750	LH05 chain	8	2386	0
070109	14:54	750	JALH02	9	3466	3
070109	14:54	750	LH02 harm	10	2779	harm
070109	14:54	750	JAUR64	11	8217	3
070109	14:54	750	UR64 fist	12	5931	who
070109	14:54	750	JAUR32	13	5863	1
070109	14:54	750	UR32 navigator	14	5455	but
070109	14:54	750	JALH50	15	6201	3
070109	14:54	750	LH50 measure	16	2512	needle
070109	14:54	750	JALH27	17	6621	5
070109	14:54	750	LH27 condition	18	3426	control
070109	14:54	750	JAHL17	19	4043	7
070109	14:54	750	HL17 soap	20	3801	who
070109	14:54	750	JAUR74	21	4827	1
070109	14:54	750	UR74 suitcase	22	2950	suprise
070109	14:54	750	JAHL36	23	4968	4
070109	14:54	750	HL36 football	24	3072	football
070109	14:54	750	JALH20	25	7055	1
070109	14:54	750	LH20 violation	26	5726	violent
070109	14:54	750	JALH54	27	3800	4
070109	14:54	750	LH54 limit	28	2787	limit
070109	14:54	750	JALH51	29	4492	4
070109	14:54	750	LH51 exit	30	4486	steady
070109	14:54	750	JAUR35	31	2237	5
070109	14:54	750	UR35 cause	32	1873	but
070109	14:54	750	JALH19	33	1742	3
070109	14:54	750	LH19 snob	34	3673	scot
070109	14:54	750	JAHL51	35	8052	9
070109	14:54	750	HL51 color	36	3592	color
070109	14:54	750	JAHL47	37	9005	5
070109	14:54	750	HL47 horse	38	2116	hero
070109	14:54	750	JAUR45	39	6403	3
070109	14:54	750	UR45 bridge	40	4395	bridge
070109	14:54	750	JAUR69	41	4966	9
070109	14:54	750	UR69 flashlight	42	5160	flash
070109	14:54	750	JAUR76	43	1696	5
070109	14:54	750	UR76 dignity	44	4298	dignity
070109	14:54	750	JALH24	45	6689	2
070109	14:54	750	LH24 feeling	46	3495	control
070109	14:54	750	JAHL53	47	3044	3
070109	14:54	750	HL53 fish	48	3045	saw
070109	14:54	750	JAUR55	49	8242	9
070109	14:54	750	UR55 bargain	50	2139	organ
070109	14:54	750	JAUR50	51	4472	4
070109	14:54	750	UR50 crane	52	6757	exhausted
070109	14:54	750	JAHL43	53	3715	5
070109	14:54	750	HL43 money	54	3120	nasty
070109	14:54	750	JALH11	55	5912	4
070109	14:54	750	LH11 cancer	56	3935	saw
070109	14:54	750	JAUR77	57	1473	5
070109	14:54	750	UR77 uncle	58	3986	sayer
070109	14:54	750	JAUR27	59	4123	4
070109	14:54	750	UR27 consequence	60	4888	consequences
070109	14:54	750	JAUR68	61	2783	5
070109	14:54	750	UR68 fatigue	62	3382	fatigue
070109	14:54	750	JAUR22	63	5721	3
070109	14:54	750	UR22 thesaurus	64	2863	kiss
070109	14:54	750	JAUR07	65	5894	5
070109	14:54	750	UR07 gathering	66	2604	control
070109	14:54	750	JAUR95	67	4421	1
070109	14:54	750	UR95 fool	68	5340	fortune
070109	14:54	750	JAUR63	69	5767	4
070109	14:54	750	UR63 alley	70	4773	strategy
070109	14:54	750	JAUR06	71	3397	4
070109	14:54	750	UR06 cello	72	4092	degree
070109	14:54	750	JAHL34	73	6061	5
070109	14:54	750	HL34 hunger	74	2455	die
070109	14:54	750	JAUR66	75	5172	4
070109	14:54	750	UR66 chief	76	4708	chief
070109	14:54	750	JAUR67	77	2916	1
070109	14:54	750	UR67 producer	78	3593	margin
070109	14:54	750	JAUR36	79	4089	4
070109	14:54	750	UR36 denim	80	5865	stupid
070109	14:54	750	JAUR34	81	1906	5
070109	14:54	750	UR34 charity	82	4514	obsessed
070109	14:54	750	JALH14	83	2338	5
070109	14:54	750	LH14 note	84	2313	note
070109	14:54	750	JAHL50	85	4241	3
070109	14:54	750	HL50 doctor	86	2665	doctor
070109	14:54	750	JALH03	87	1775	5
070109	14:54	750	LH03 yard	88	3952	racquet
070109	14:54	750	JALH22	89	4417	4
070109	14:54	750	LH22 crowd	90	3523	some
070109	14:54	750	JAUR46	91	4999	4
070109	14:54	750	UR46 content	92	3188	beer
070109	14:54	750	JAUR75	93	5043	5
070109	14:54	750	UR75 awe	94	3901	axe
070109	14:54	750	JAUR78	95	1825	1
070109	14:54	750	UR78 blender	96	3613	blank
070109	14:54	750	JAHL39	97	6731	5
070109	14:54	750	HL39 book	98	3033	who
070109	14:54	750	JAUR62	99	4279	2
070109	14:54	750	UR62 chemistry	100	5159	doctor
070109	14:54	750	JALH04	101	1650	4
070109	14:54	750	LH04 grade	102	3761	why
070109	14:54	750	JAHL03	103	3874	5
070109	14:54	750	HL03 cigarette	104	3721	cigarette
070109	14:54	750	JAUR20	105	4682	5
070109	14:54	750	UR20 climax	106	4479	hot
070109	14:54	750	JALH23	107	7885	8
070109	14:54	750	LH23 possibility	108	3961	possibility
070109	14:54	750	JAHL09	109	3001	5
070109	14:54	750	HL09 chalk	110	2420	chalk
070109	14:54	750	JALH01	111	1465	4
070109	14:54	750	LH01 brain	112	5186	calculus
070109	14:54	750	JAHL42	113	16824	4
070109	14:54	750	HL42 pie	114	5567	butter
070109	14:54	750	JALH43	115	6278	6
070109	14:54	750	LH43 noise	116	3219	garden
070109	14:54	750	JALH30	117	13706	3
070109	14:54	750	LH30 assignment	118	3896	assignment
070109	14:54	750	JALH53	119	4650	4
070109	14:54	750	LH53 core	120	2502	cock
070109	14:54	750	JAUR47	121	3265	6
070109	14:54	750	UR47 chimpanzee	122	2590	cement
070109	14:54	750	JAUR42	123	4200	1
070109	14:54	750	UR42 sergeant	124	4755	servant
070109	14:54	750	JAUR01	125	11241	4
070109	14:54	750	UR01 file	126	2737	toe
070109	14:54	750	JAUR87	127	14797	6
070109	14:54	750	UR87 duty	128	4967	snow
070109	14:54	750	JAHL24	129	2146	2
070109	14:54	750	HL24 eye	130	2655	farm
070109	14:54	750	JAUR58	131	10447	5
070109	14:54	750	UR58 answer	132	6244	break
070109	14:54	750	JAHL41	133	11515	4
070109	14:54	750	HL41 hand	134	2611	hot
070109	14:54	750	JAUR54	135	7017	1
070109	14:54	750	UR54 steam	136	4327	stream
070109	14:54	750	JAUR82	137	7763	7
070109	14:54	750	UR82 campus	138	2982	campus
070109	14:54	750	JAHL49	139	4926	1
070109	14:54	750	HL49 spice	140	3480	who
070109	14:54	750	JAUR103	141	4463	5
070109	14:54	750	UR103 hula	142	4681	human
070109	14:54	750	JAUR70	143	2997	3
070109	14:54	750	UR70 pajamas	144	2795	plates
070109	14:54	750	JAHL23	145	2563	5
070109	14:54	750	HL23 baby	146	2585	baby
070109	14:54	750	JALH09	147	15923	1
070109	14:54	750	LH09 piece	148	4500	pieces
070109	14:54	750	JAHL05	149	4271	4
070109	14:54	750	HL05 mountain	150	3319	mountain
070109	14:54	750	JAHL25	151	3971	3
070109	14:54	750	HL25 cut	152	4160	pen
070109	14:54	750	JAHL32	153	3972	5
070109	14:54	750	HL32 television	154	4957	television
070109	14:54	750	JALH38	155	6540	5
070109	14:54	750	LH38 paint	156	3905	potter
070109	14:54	750	JAUR52	157	6579	3
070109	14:54	750	UR52 knight	158	2978	saw
070109	14:54	750	JAPR28	159	2752	6
070109	14:54	750	PR28 challenge	160	5006	challenge
070109	14:54	750	JALH25	161	10359	5
070109	14:54	750	LH25 track	162	2538	track
070109	14:54	750	JAUR24	163	2530	6
070109	14:54	750	UR24 kid	164	4215	kids
070109	14:54	750	JAUR17	165	1774	2
070109	14:54	750	UR17 trance	166	6114	trash
070109	14:54	750	JAHL10	167	2319	6
070109	14:54	750	HL10 cow	168	4292	vegetables
070109	14:54	750	JAUR30	169	10177	9
070109	14:54	750	UR30 lover	170	2762	lover
070109	14:54	750	JAUR14	171	7314	3
070109	14:54	750	UR14 fudge	172	3009	criminal
070109	14:54	750	JAUR60	173	18263	6
070109	14:54	750	UR60 plaque	174	3303	prague
070109	14:54	750	JAHL21	175	1562	1
070109	14:54	750	HL21 empire	176	2988	sample
070109	14:54	750	JAHL45	177	10520	4
070109	14:54	750	HL45 words	178	2948	words
070109	14:54	750	JAUR107	179	9425	7
070109	14:54	750	UR107 cocaine	180	9758	spider web
070109	14:54	750	JALH46	181	3293	4
070109	14:54	750	LH46 submarine	182	4373	submarine
070109	14:54	750	JAUR85	183	1891	5
070109	14:54	750	UR85 stroke	184	2861	stroke
070109	14:54	750	JAUR28	185	7031	8
070109	14:54	750	UR28 bang	186	6086	villain
070109	14:54	750	JAUR98	187	7091	9
070109	14:54	750	UR98 latch	188	5077	earthquake
070109	14:54	750	JAUR105	189	5209	7
070109	14:54	750	UR105 curtain	190	2451	smooth
070109	14:54	750	JAUR65	191	4088	5
070109	14:54	750	UR65 checkers	192	2709	food
070109	14:54	750	JAUR106	193	6889	3
070109	14:54	750	UR106 eagle	194	3894	tooth
070109	14:54	750	JALH17	195	17080	5
070109	14:54	750	LH17 life	196	1565	old
070109	14:54	750	JAUR04	197	1379	2
070109	14:54	750	UR04 marsh	198	3451	fstugtugjka
070109	14:54	750	JAHL31	199	2408	3
070109	14:54	750	HL31 war	200	3994	stuay
070109	14:54	750	JALH07	201	3197	1
070109	14:54	750	LH07 rear	202	1917	ass
070109	14:54	750	JAHL33	203	4692	5
070109	14:54	750	HL33 joke	204	1825	joke
070109	14:54	750	JAHL01	205	6120	1
070109	14:54	750	HL01 elephant	206	2559	elephant
070109	14:54	750	JALH37	207	9578	8
070109	14:54	750	LH37 pad	208	2076	pad
070109	14:54	750	JAHL14	209	4776	1
070109	14:54	750	HL14 milk	210	3729	milk
070109	14:54	750	JAUR96	211	3643	4
070109	14:54	750	UR96 dessert	212	4557	dessert
070109	14:54	750	JALH32	213	7984	4
070109	14:54	750	LH32 capacity	214	4455	capacity
070109	14:54	750	JAUR59	215	3795	2
070109	14:54	750	UR59 copper	216	5859	copy
070109	14:54	750	JAUR21	217	2248	1
070109	14:54	750	UR21 ore	218	3616	christians
070109	14:54	750	JSPR26	1	11469	5
070109	14:54	750	PR26 colonel	2	3169	saw
070109	14:54	750	JSPR24	3	11858	5
070109	14:54	750	PR24 pest	4	2045	part
070109	14:54	750	JSPR08	5	5160	5
070109	14:54	750	PR08 beef	6	2228	hive
070109	14:54	750	JSPR05	7	4976	6
070109	14:54	750	PR05 calf	8	3226	call
070109	14:54	750	JSPR14	9	4655	8
070109	14:54	750	PR14 religion	10	3569	who
070109	14:54	750	JSPR19	11	3611	5
070109	14:54	750	PR19 void	12	2648	void
070109	14:54	750	JSPR12	13	5894	5
070109	14:54	750	PR12 royalty	14	3488	democrat
070109	14:54	750	JSPR02	15	7552	5
070109	14:54	750	PR02 wrinkle	16	4289	wednesday
070109	14:54	750	JSPR10	17	12215	6
070109	14:54	750	PR10 camel	18	3139	charger
070109	14:54	750	JSPR15	19	9568	5
070109	14:54	750	PR15 depletion	20	2819	position
070109	14:54	750	JSPR20	21	3943	5
070109	14:54	750	PR20 advertisement	22	6220	choices
070109	14:54	750	JSPR29	23	5675	6
070109	14:54	750	PR29 mermaid	24	2557	st
070109	14:54	750	JSPR16	25	4743	5
070109	14:54	750	PR16 compulsion	26	4472	compliant
070109	14:54	750	JSPR22	27	3522	6
070109	14:54	750	PR22 ass	28	4698	concrete
070109	14:54	750	JSPR18	29	1459	6
070109	14:54	750	PR18 clorox	30	3546	clouds
070109	14:54	750	JSUR33	1	4839	6
070109	14:54	750	UR33 horror	2	3059	horror
070109	14:54	750	JSUR41	3	4355	5
070109	14:54	750	UR41 chime	4	2263	cold
070109	14:54	750	JSLH06	5	4481	7
070109	14:54	750	LH06 element	6	2398	element
070109	14:54	750	JSHL40	7	3528	5
070109	14:54	750	HL40 temperature	8	2761	desease
070109	14:54	750	JSLH10	9	1412	6
070109	14:54	750	LH10 care	10	3175	imminent
070109	14:54	750	JSHL16	11	2507	5
070109	14:54	750	HL16 broom	12	3315	broom
070109	14:54	750	JSLH42	13	4905	5
070109	14:54	750	LH42 thought	14	4674	method
070109	14:54	750	JSLH44	15	8349	5
070109	14:54	750	LH44 vessel	16	5703	vessel
070109	14:54	750	JSLH41	17	3667	6
070109	14:54	750	LH41 girl	18	1780	girl
070109	14:54	750	JSHL08	19	18980	5
070109	14:54	750	HL08 math	20	3080	control
070109	14:54	750	JSHL30	21	2947	5
070109	14:54	750	HL30 air	22	5557	frustrated
070109	14:54	750	JSLH34	23	2429	5
070109	14:54	750	LH34 panel	24	2682	panel
070109	14:54	750	JSHL37	25	6933	3
070109	14:54	750	HL37 thread	26	3076	thread
070109	14:54	750	JSUR23	27	5841	5
070109	14:54	750	UR23 abundance	28	3421	obscure
070109	14:54	750	JSUR94	29	3579	6
070109	14:54	750	UR94 bristle	30	1881	bag
070109	14:54	750	JSLH29	31	4638	5
070109	14:54	750	LH29 closet	32	5711	holder
070109	14:54	750	JSUR97	33	4409	6
070109	14:54	750	UR97 banner	34	3797	bar
070109	14:54	750	JSUR73	35	2084	5
070109	14:54	750	UR73 kite	36	2653	kite
070109	14:54	750	JSHL15	37	8670	3
070109	14:54	750	HL15 bomb	38	2155	bomb
070109	14:54	750	JSUR05	39	5892	4
070109	14:54	750	UR05 lease	40	4946	staircase
070109	14:54	750	JSLH40	41	2292	5
070109	14:54	750	LH40 field	42	2051	friend
070109	14:54	750	JSUR09	43	3831	4
070109	14:54	750	UR09 education	44	2594	cause
070109	14:54	750	JSHL18	45	3960	5
070109	14:54	750	HL18 paper	46	4345	stupid
070109	14:54	750	JSUR61	47	4112	3
070109	14:54	750	UR61 suicide	48	2897	peak
070109	14:54	750	JSLH18	49	7778	6
070109	14:54	750	LH18 edge	50	2847	edge
070109	14:54	750	JSHL04	51	3296	5
070109	14:54	750	HL04 beer	52	3048	deer
070109	14:54	750	JSUR19	53	4299	7
070109	14:54	750	UR19 bison	54	3592	king
070109	14:54	750	JSLH12	55	5569	6
070109	14:54	750	LH12 addition	56	3461	addition
070109	14:54	750	JSHL02	57	11515	5
070109	14:54	750	HL02 flower	58	2396	move
070109	14:54	750	JSLH36	59	6647	5
070109	14:54	750	LH36 gang	60	3657	battle
070109	14:54	750	JSLH48	61	2668	5
070109	14:54	750	LH48 outcome	62	2431	outcome
070109	14:54	750	JSLH15	63	6769	5
070109	14:54	750	LH15 blessing	64	2414	blessing
070109	14:54	750	JSHL35	65	2075	5
070109	14:54	750	HL35 cake	66	1285	cake
070109	14:54	750	JSUR40	67	1893	5
070109	14:54	750	UR40 dancer	68	2924	shampoo
070109	14:54	750	JSUR88	69	2804	2
070109	14:54	750	UR88 circus	70	2974	place
070109	14:54	750	JSUR81	71	4477	7
070109	14:54	750	UR81 acid	72	2092	acid
070109	14:54	750	JSUR92	73	10431	5
070109	14:54	750	UR92 dart	74	2779	dart
070109	14:54	750	JSHL44	75	2386	5
070109	14:54	750	HL44 baseball	76	2474	baseball
070109	14:54	750	JSHL46	77	4236	6
070109	14:54	750	HL46 butter	78	2085	butter
070109	14:54	750	JSUR15	79	2223	7
070109	14:54	750	UR15 compass	80	5828	commotion
070109	14:54	750	JSLH35	81	1481	5
070109	14:54	750	LH35 shelter	82	2444	shelter
070109	14:54	750	JSUR91	83	2103	5
070109	14:54	750	UR91 anteater	84	2783	nest
070109	14:54	750	JSLH08	85	8524	5
070109	14:54	750	LH08 house	86	11673	county
070109	14:54	750	JSLH21	87	2558	6
070109	14:54	750	LH21 monument	88	4512	moment
070109	14:54	750	JSUR83	89	6775	5
070109	14:54	750	UR83 lesson	90	2071	lesson
070109	14:54	750	JSHL22	91	4388	5
070109	14:54	750	HL22 problem	92	2611	problem
070109	14:54	750	JSLH47	93	4091	7
070109	14:54	750	LH47 detergent	94	2767	detergent
070109	14:54	750	JSUR56	95	2426	6
070109	14:54	750	UR56 antler	96	5703	excited
070109	14:54	750	JSUR80	97	3988	8
070109	14:54	750	UR80 antique	98	2306	medicine
070109	14:54	750	JSUR11	99	4288	6
070109	14:54	750	UR11 foundation	100	4492	foundation
070109	14:54	750	JSHL11	101	4579	5
070109	14:54	750	HL11 rock	102	1738	rock
070109	14:54	750	JSLH16	103	2015	6
070109	14:54	750	LH16 power	104	4656	paper
070109	14:54	750	JSUR18	105	2658	8
070109	14:54	750	UR18 relief	106	4889	who
070109	14:54	750	JSLH39	107	2960	6
070109	14:54	750	LH39 reward	108	2337	reward
070109	14:54	750	JSUR79	109	3594	8
070109	14:54	750	UR79 beetle	110	2951	beetle
070109	14:54	750	JSUR102	111	2870	7
070109	14:54	750	UR102 velocity	112	5409	victory
070109	14:54	750	JSUR101	113	2876	5
070109	14:54	750	UR101 beard	114	2996	food
070109	14:54	750	JSUR72	115	5029	4
070109	14:54	750	UR72 band	116	1903	band
070109	14:54	750	JSUR51	117	4002	5
070109	14:54	750	UR51 cabbage	118	3817	attack
070109	14:54	750	JSHL54	119	2126	5
070109	14:54	750	HL54 indian	120	3346	indian
070109	14:54	750	JSUR39	121	1949	5
070109	14:54	750	UR39 faith	122	1781	faith
070109	14:54	750	JSUR49	123	1852	7
070109	14:54	750	UR49 casket	124	2492	casket
070109	14:54	750	JSLH49	125	2553	5
070109	14:54	750	LH49 kindness	126	2357	kind
070109	14:54	750	JSUR10	127	1472	6
070109	14:54	750	UR10 tribe	128	2005	tribe
070109	14:54	750	JSHL06	129	2250	5
070109	14:54	750	HL06 egg	130	4381	0
070109	14:54	750	JSUR71	131	1868	6
070109	14:54	750	UR71 padding	132	3576	padding
070109	14:54	750	JSUR25	133	1703	5
070109	14:54	750	UR25 partner	134	4759	vegetables
070109	14:54	750	JSUR03	135	3646	8
070109	14:54	750	UR03 vehicle	136	2408	s
070109	14:54	750	JSHL28	137	6369	5
070109	14:54	750	HL28 bird	138	2520	bird
070109	14:54	750	JSUR100	139	6372	6
070109	14:54	750	UR100 comb	140	1508	0
070109	14:54	750	JSUR89	141	4780	5
070109	14:54	750	UR89 crow	142	3400	crow
070109	14:54	750	JSUR29	143	5090	5
070109	14:54	750	UR29 patrol	144	2241	patrol
070109	14:54	750	JSHL38	145	2938	9
070109	14:54	750	HL38 boat	146	1786	boat
070109	14:54	750	JSLH33	147	2751	6
070109	14:54	750	LH33 fable	148	3004	fable
070109	14:54	750	JSUR31	149	3107	5
070109	14:54	750	UR31 diameter	150	4109	diameter
070109	14:54	750	JSHL19	151	2385	6
070109	14:54	750	HL19 car	152	1550	car
070109	14:54	750	JSLH31	153	1641	6
070109	14:54	750	LH31 self	154	2587	trip
070109	14:54	750	JSLH13	155	10845	5
070109	14:54	750	LH13 crease	156	3484	sacred
070109	14:54	750	JSUR37	157	4667	6
070109	14:54	750	UR37 cloth	158	2077	cloth
070109	14:54	750	JSHL27	159	11754	5
070109	14:54	750	HL27 rain	160	1297	rain
070109	14:54	750	JSUR104	161	1545	6
070109	14:54	750	UR104 aardvark	162	1964	attack
070109	14:54	750	JSUR38	163	2507	7
070109	14:54	750	UR38 energy	164	2179	war
070109	14:54	750	JSUR90	165	1534	6
070109	14:54	750	UR90 sailing	166	2847	earn
070109	14:54	750	JSUR57	167	1597	6
070109	14:54	750	UR57 benefit	168	2303	benefit
070109	14:54	750	JSUR86	169	6444	5
070109	14:54	750	UR86 boulevard	170	4752	boulevard
070109	14:54	750	JSLH45	171	1515	6
070109	14:54	750	LH45 intellect	172	5671	intellect
070109	14:54	750	JSLH26	173	1603	6
070109	14:54	750	LH26 center	174	2002	center
070109	14:54	750	JSUR12	175	3267	7
070109	14:54	750	UR12 unicorn	176	2678	spoon
070109	14:54	750	JSUR108	177	4478	6
070109	14:54	750	UR108 shield	178	2801	socks
070109	14:54	750	JSUR99	179	4277	7
070109	14:54	750	UR99 branch	180	2996	crunch
070109	14:54	750	JSHL29	181	2288	6
070109	14:54	750	HL29 ring	182	2392	ring
070109	14:54	750	JSHL26	183	1687	6
070109	14:54	750	HL26 light	184	1861	light
070109	14:54	750	JSLH28	185	1903	5
070109	14:54	750	LH28 vagrant	186	3041	vagrant
070109	14:54	750	JSHL52	187	8059	7
070109	14:54	750	HL52 sand	188	1536	sand
070109	14:54	750	JSHL48	189	5089	4
070109	14:54	750	HL48 airplane	190	2534	airplane
070109	14:54	750	JSUR43	191	3476	5
070109	14:54	750	UR43 balloon	192	4095	balloon
070109	14:54	750	JSUR93	193	4576	6
070109	14:54	750	UR93 catcher	194	3881	cheteau
070109	14:54	750	JSHL20	195	4012	7
070109	14:54	750	HL20 wine	196	1456	wine
070109	14:54	750	JSHL13	197	3781	7
070109	14:54	750	HL13 map	198	1923	map
070109	14:54	750	JSHL12	199	2736	7
070109	14:54	750	HL12 space	200	3290	space
070109	14:54	750	JSUR02	201	2484	5
070109	14:54	750	UR02 comma	202	3208	hemi
070109	14:54	750	JSUR48	203	7269	3
070109	14:54	750	UR48 democracy	204	2850	democracy
070109	14:54	750	JSUR08	205	6364	5
070109	14:54	750	UR08 assistant	206	3439	assistant
070109	14:54	750	JSUR84	207	6450	5
070109	14:54	750	UR84 flag	208	2073	flag
070109	14:54	750	JSUR26	209	3092	7
070109	14:54	750	UR26 eternity	210	2558	eternity
070109	14:54	750	JSLH52	211	2857	7
070109	14:54	750	LH52 bureau	212	2988	bureau
070109	14:54	750	JSUR44	213	4732	3
070109	14:54	750	UR44 rot	214	2185	ball
070109	14:54	750	JSUR16	215	15034	6
070109	14:54	750	UR16 century	216	2967	money
