date	time	subject	trialcode	trialnum	latency	response
060209	11:51	700	JSseePR17	1	500	0
060209	11:51	700	PR17 emerald	2	29765	element
060209	11:51	700	JSPR17	3	21578	8
060209	11:51	700	JSseePR27	4	500	0
060209	11:51	700	PR27 wheat	5	24346	child
060209	11:51	700	JSPR27	6	13492	7
060209	11:51	700	JSseePR07	7	500	0
060209	11:51	700	PR07 bog	8	7325	blue
060209	11:51	700	JSPR07	9	15759	5
060209	11:51	700	JSseePR23	10	500	0
060209	11:51	700	PR23 companion	11	7509	control
060209	11:51	700	JSPR23	12	5006	7
060209	11:51	700	JSseePR06	13	500	0
060209	11:51	700	PR06 beast	14	10874	beast
060209	11:51	700	JSPR06	15	7087	6
060209	11:51	700	JSseePR09	16	500	0
060209	11:51	700	PR09 album	17	4968	album
060209	11:51	700	JSPR09	18	5752	7
060209	11:51	700	JSseePR21	19	500	0
060209	11:51	700	PR21 innocence	20	7819	correct
060209	11:51	700	JSPR21	21	8319	8
060209	11:51	700	JSseePR01	22	500	0
060209	11:51	700	PR01 cash	23	4050	cash
060209	11:51	700	JSPR01	24	10426	6
060209	11:51	700	JSseePR11	25	500	0
060209	11:51	700	PR11 ounce	26	5297	ocean
060209	11:51	700	JSPR11	27	6050	6
060209	11:51	700	JSseePR25	28	500	0
060209	11:51	700	PR25 saliva	29	7417	saline
060209	11:51	700	JSPR25	30	5150	9
060209	11:51	700	JSseePR30	31	500	0
060209	11:51	700	PR30 maiden	32	28211	maiden
060209	11:51	700	JSPR30	33	7452	5
060209	11:51	700	JSseePR03	34	500	0
060209	11:51	700	PR03 acre	35	6685	once
060209	11:51	700	JSPR03	36	8170	6
060209	11:51	700	JSseePR13	37	500	0
060209	11:51	700	PR13 ambition	38	8244	album
060209	11:51	700	JSPR13	39	5661	5
060209	11:51	700	JSseePR04	40	500	0
060209	11:51	700	PR04 diaper	41	5348	diaper
060209	11:51	700	JSPR04	42	4564	8
060209	11:51	700	JSseePR28	43	500	0
060209	11:51	700	PR28 challenge	44	5547	challenge
060209	11:51	700	JSPR28	45	5322	5
060209	11:51	700	JSseeUR42	1	500	0
060209	11:51	700	UR42 sergeant	2	6297	servant
060209	11:51	700	JSUR42	3	7311	8
060209	11:51	700	JSseeUR52	4	500	0
060209	11:51	700	UR52 knight	5	5142	knight
060209	11:51	700	JSUR52	6	6350	7
060209	11:51	700	JSseeLH01	7	500	0
060209	11:51	700	LH01 brain	8	3663	brain
060209	11:51	700	JSLH01	9	4272	7
060209	11:51	700	JSseeHL45	10	500	0
060209	11:51	700	HL45 words	11	3500	words
060209	11:51	700	JSHL45	12	8483	6
060209	11:51	700	JSseeLH03	13	500	0
060209	11:51	700	LH03 yard	14	3391	yard
060209	11:51	700	JSLH03	15	5692	6
060209	11:51	700	JSseeHL21	16	500	0
060209	11:51	700	HL21 empire	17	4490	empire
060209	11:51	700	JSHL21	18	6319	7
060209	11:51	700	JSseeLH38	19	500	0
060209	11:51	700	LH38 paint	20	3273	paint
060209	11:51	700	JSLH38	21	5252	7
060209	11:51	700	JSseeLH43	22	500	0
060209	11:51	700	LH43 noise	23	4404	noise
060209	11:51	700	JSLH43	24	8156	6
060209	11:51	700	JSseeLH37	25	500	0
060209	11:51	700	LH37 pad	26	6519	pale
060209	11:51	700	JSLH37	27	9107	5
060209	11:51	700	JSseeHL07	28	500	0
060209	11:51	700	HL07 king	29	3388	king
060209	11:51	700	JSHL07	30	11121	6
060209	11:51	700	JSseeHL39	31	500	0
060209	11:51	700	HL39 book	32	2954	book
060209	11:51	700	JSHL39	33	4474	5
060209	11:51	700	JSseeLH24	34	500	0
060209	11:51	700	LH24 feeling	35	3957	feeling
060209	11:51	700	JSLH24	36	5513	8
060209	11:51	700	JSseeHL42	37	500	0
060209	11:51	700	HL42 pie	38	3191	pie
060209	11:51	700	JSHL42	39	3444	5
060209	11:51	700	JSseeUR30	40	500	0
060209	11:51	700	UR30 lover	41	4676	cancer
060209	11:51	700	JSUR30	42	6193	6
060209	11:51	700	JSseeUR95	43	500	0
060209	11:51	700	UR95 fool	44	3384	goal
060209	11:51	700	JSUR95	45	4637	5
060209	11:51	700	JSseeLH20	46	500	0
060209	11:51	700	LH20 violation	47	5449	violent
060209	11:51	700	JSLH20	48	4348	6
060209	11:51	700	JSseeUR96	49	500	0
060209	11:51	700	UR96 dessert	50	5524	desire
060209	11:51	700	JSUR96	51	4884	8
060209	11:51	700	JSseeUR66	52	500	0
060209	11:51	700	UR66 chief	53	10053	pie
060209	11:51	700	JSUR66	54	6655	4
060209	11:51	700	JSseeHL17	55	500	0
060209	11:51	700	HL17 soap	56	3459	soap
060209	11:51	700	JSHL17	57	3405	8
060209	11:51	700	JSseeUR06	58	500	0
060209	11:51	700	UR06 cello	59	10687	cell
060209	11:51	700	JSUR06	60	9309	8
060209	11:51	700	JSseeLH32	61	500	0
060209	11:51	700	LH32 capacity	62	18717	celebrity
060209	11:51	700	JSLH32	63	6797	5
060209	11:51	700	JSseeUR103	64	500	0
060209	11:51	700	UR103 hula	65	4274	funny
060209	11:51	700	JSUR103	66	3369	6
060209	11:51	700	JSseeHL23	67	500	0
060209	11:51	700	HL23 baby	68	5748	baby
060209	11:51	700	JSHL23	69	5938	8
060209	11:51	700	JSseeUR63	70	500	0
060209	11:51	700	UR63 alley	71	5093	sinus
060209	11:51	700	JSUR63	72	4639	6
060209	11:51	700	JSseeLH11	73	500	0
060209	11:51	700	LH11 cancer	74	3643	fish
060209	11:51	700	JSLH11	75	9229	6
060209	11:51	700	JSseeHL03	76	500	0
060209	11:51	700	HL03 cigarette	77	27440	cigar
060209	11:51	700	JSHL03	78	7763	6
060209	11:51	700	JSseeUR28	79	500	0
060209	11:51	700	UR28 bang	80	4438	bag
060209	11:51	700	JSUR28	81	5373	5
060209	11:51	700	JSseeLH04	82	500	0
060209	11:51	700	LH04 grade	83	4057	grade
060209	11:51	700	JSLH04	84	6304	7
060209	11:51	700	JSseeHL01	85	500	0
060209	11:51	700	HL01 elephant	86	4748	elephant
060209	11:51	700	JSHL01	87	3262	5
060209	11:51	700	JSseeLH27	88	500	0
060209	11:51	700	LH27 condition	89	5109	condition
060209	11:51	700	JSLH27	90	4663	5
060209	11:51	700	JSseeLH51	91	500	0
060209	11:51	700	LH51 exit	92	5306	electric
060209	11:51	700	JSLH51	93	5459	5
060209	11:51	700	JSseeLH07	94	500	0
060209	11:51	700	LH07 rear	95	12195	amps
060209	11:51	700	JSLH07	96	6463	7
060209	11:51	700	JSseeHL41	97	500	0
060209	11:51	700	HL41 hand	98	3595	hat
060209	11:51	700	JSHL41	99	6159	7
060209	11:51	700	JSseeUR50	100	500	0
060209	11:51	700	UR50 crane	101	6736	crane
060209	11:51	700	JSUR50	102	5075	5
060209	11:51	700	JSseeUR76	103	500	0
060209	11:51	700	UR76 dignity	104	5884	digital
060209	11:51	700	JSUR76	105	4412	6
060209	11:51	700	JSseeUR69	106	500	0
060209	11:51	700	UR69 flashlight	107	6714	strawberry
060209	11:51	700	JSUR69	108	3758	6
060209	11:51	700	JSseeUR85	109	500	0
060209	11:51	700	UR85 stroke	110	4120	stroke
060209	11:51	700	JSUR85	111	4101	5
060209	11:51	700	JSseeHL47	112	500	0
060209	11:51	700	HL47 horse	113	4680	horse
060209	11:51	700	JSHL47	114	3845	7
060209	11:51	700	JSseeHL49	115	500	0
060209	11:51	700	HL49 spice	116	3380	spice
060209	11:51	700	JSHL49	117	5144	5
060209	11:51	700	JSseeUR22	118	500	0
060209	11:51	700	UR22 thesaurus	119	3878	base
060209	11:51	700	JSUR22	120	5350	6
060209	11:51	700	JSseeLH25	121	500	0
060209	11:51	700	LH25 track	122	4563	schedule
060209	11:51	700	JSLH25	123	3557	8
060209	11:51	700	JSseeUR82	124	500	0
060209	11:51	700	UR82 campus	125	11360	camper
060209	11:51	700	JSUR82	126	6321	7
060209	11:51	700	JSseeLH02	127	500	0
060209	11:51	700	LH02 harm	128	3635	harm
060209	11:51	700	JSLH02	129	6645	5
060209	11:51	700	JSseeLH14	130	500	0
060209	11:51	700	LH14 note	131	9865	man
060209	11:51	700	JSLH14	132	6124	4
060209	11:51	700	JSseeUR70	133	500	0
060209	11:51	700	UR70 pajamas	134	5718	water
060209	11:51	700	JSUR70	135	3782	6
060209	11:51	700	JSseeHL31	136	500	0
060209	11:51	700	HL31 war	137	3079	war
060209	11:51	700	JSHL31	138	4841	5
060209	11:51	700	JSseeLH50	139	500	0
060209	11:51	700	LH50 measure	140	3564	mean
060209	11:51	700	JSLH50	141	3185	5
060209	11:51	700	JSseeUR60	142	500	0
060209	11:51	700	UR60 plaque	143	3620	peck
060209	11:51	700	JSUR60	144	7103	5
060209	11:51	700	JSseeUR68	145	500	0
060209	11:51	700	UR68 fatigue	146	3951	drain
060209	11:51	700	JSUR68	147	5995	5
060209	11:51	700	JSseeUR20	148	500	0
060209	11:51	700	UR20 climax	149	4724	calm
060209	11:51	700	JSUR20	150	3046	5
060209	11:51	700	JSseeHL09	151	500	0
060209	11:51	700	HL09 chalk	152	4015	chalk
060209	11:51	700	JSHL09	153	3593	8
060209	11:51	700	JSseeLH09	154	500	0
060209	11:51	700	LH09 piece	155	4402	shirt
060209	11:51	700	JSLH09	156	3579	5
060209	11:51	700	JSseeUR27	157	500	0
060209	11:51	700	UR27 consequence	158	7852	conquer
060209	11:51	700	JSUR27	159	7734	7
060209	11:51	700	JSseeLH30	160	500	0
060209	11:51	700	LH30 assignment	161	4995	assignment
060209	11:51	700	JSLH30	162	4786	8
060209	11:51	700	JSseeUR67	163	500	0
060209	11:51	700	UR67 producer	164	5807	proceed
060209	11:51	700	JSUR67	165	6370	3
060209	11:51	700	JSseeUR13	166	500	0
060209	11:51	700	UR13 almanac	167	3530	animan
060209	11:51	700	JSUR13	168	7657	7
060209	11:51	700	JSseeUR107	169	500	0
060209	11:51	700	UR107 cocaine	170	7113	spinder
060209	11:51	700	JSUR107	171	7235	6
060209	11:51	700	JSseeUR65	172	500	0
060209	11:51	700	UR65 checkers	173	4230	cracker
060209	11:51	700	JSUR65	174	4102	7
060209	11:51	700	JSseeUR59	175	500	0
060209	11:51	700	UR59 copper	176	5401	cow
060209	11:51	700	JSUR59	177	7374	6
060209	11:51	700	JSseeHL53	178	500	0
060209	11:51	700	HL53 fish	179	3011	fish
060209	11:51	700	JSHL53	180	2496	8
060209	11:51	700	JSseeUR47	181	500	0
060209	11:51	700	UR47 chimpanzee	182	10025	smoke
060209	11:51	700	JSUR47	183	3828	5
060209	11:51	700	JSseeUR58	184	500	0
060209	11:51	700	UR58 answer	185	4964	knee
060209	11:51	700	JSUR58	186	2444	5
060209	11:51	700	JSseeLH53	187	500	0
060209	11:51	700	LH53 core	188	3847	score
060209	11:51	700	JSLH53	189	4168	4
060209	11:51	700	JSseeUR105	190	500	0
060209	11:51	700	UR105 curtain	191	4401	curtain
060209	11:51	700	JSUR105	192	4713	2
060209	11:51	700	JSseeHL05	193	500	0
060209	11:51	700	HL05 mountain	194	4729	mountain
060209	11:51	700	JSHL05	195	4580	7
060209	11:51	700	JSseeUR64	196	500	0
060209	11:51	700	UR64 fist	197	6634	first
060209	11:51	700	JSUR64	198	12818	6
060209	11:51	700	JSseeUR32	199	500	0
060209	11:51	700	UR32 navigator	200	6200	nickle
060209	11:51	700	JSUR32	201	6115	3
060209	11:51	700	JSseeUR04	202	500	0
060209	11:51	700	UR04 marsh	203	4494	march
060209	11:51	700	JSUR04	204	3259	7
060209	11:51	700	JSseeHL34	205	500	0
060209	11:51	700	HL34 hunger	206	4011	human
060209	11:51	700	JSHL34	207	4789	7
060209	11:51	700	JSseeUR106	208	500	0
060209	11:51	700	UR106 eagle	209	3490	eagle
060209	11:51	700	JSUR106	210	4115	4
060209	11:51	700	JSseeUR77	211	500	0
060209	11:51	700	UR77 uncle	212	3621	uncle
060209	11:51	700	JSUR77	213	3024	8
060209	11:51	700	JSseeUR35	214	500	0
060209	11:51	700	UR35 cause	215	4698	cave
060209	11:51	700	JSUR35	216	4182	6
060209	11:51	700	JSseeHL43	217	500	0
060209	11:51	700	HL43 money	218	3998	money
060209	11:51	700	JSHL43	219	6712	6
060209	11:51	700	JSseeLH23	220	500	0
060209	11:51	700	LH23 possibility	221	8633	position
060209	11:51	700	JSLH23	222	3361	6
060209	11:51	700	JSseeUR36	223	500	0
060209	11:51	700	UR36 denim	224	3516	denial
060209	11:51	700	JSUR36	225	5547	5
060209	11:51	700	JSseeHL24	226	500	0
060209	11:51	700	HL24 eye	227	3239	eye
060209	11:51	700	JSHL24	228	4531	3
060209	11:51	700	JSseeLH22	229	500	0
060209	11:51	700	LH22 crowd	230	5795	crowd
060209	11:51	700	JSLH22	231	3711	6
060209	11:51	700	JSseeLH05	232	500	0
060209	11:51	700	LH05 chain	233	2860	chain
060209	11:51	700	JSLH05	234	4872	6
060209	11:51	700	JSseeUR45	235	500	0
060209	11:51	700	UR45 bridge	236	7353	honeymoon
060209	11:51	700	JSUR45	237	5817	6
060209	11:51	700	JSseeHL33	238	500	0
060209	11:51	700	HL33 joke	239	3161	joke
060209	11:51	700	JSHL33	240	4336	4
060209	11:51	700	JSseeUR14	241	500	0
060209	11:51	700	UR14 fudge	242	13841	convict
060209	11:51	700	JSUR14	243	8797	7
060209	11:51	700	JSseeUR46	244	500	0
060209	11:51	700	UR46 content	245	5156	container
060209	11:51	700	JSUR46	246	3107	5
060209	11:51	700	JSseeUR78	247	500	0
060209	11:51	700	UR78 blender	248	3442	blend
060209	11:51	700	JSUR78	249	3877	7
060209	11:51	700	JSseeUR62	250	500	0
060209	11:51	700	UR62 chemistry	251	7170	chemistry
060209	11:51	700	JSUR62	252	5474	6
060209	11:51	700	JSseeUR75	253	500	0
060209	11:51	700	UR75 awe	254	11225	animal
060209	11:51	700	JSUR75	255	5792	2
060209	11:51	700	JSseeLH46	256	500	0
060209	11:51	700	LH46 submarine	257	3609	sub
060209	11:51	700	JSLH46	258	3117	4
060209	11:51	700	JSseeLH17	259	500	0
060209	11:51	700	LH17 life	260	2243	life
060209	11:51	700	JSLH17	261	4001	6
060209	11:51	700	JSseeUR21	262	500	0
060209	11:51	700	UR21 ore	263	6001	orgin
060209	11:51	700	JSUR21	264	3476	8
060209	11:51	700	JSseeUR17	265	500	0
060209	11:51	700	UR17 trance	266	4923	box
060209	11:51	700	JSUR17	267	3948	6
060209	11:51	700	JSseeUR98	268	500	0
060209	11:51	700	UR98 latch	269	7782	launch
060209	11:51	700	JSUR98	270	5955	5
060209	11:51	700	JSseeHL36	271	500	0
060209	11:51	700	HL36 football	272	4013	football
060209	11:51	700	JSHL36	273	6071	4
060209	11:51	700	JSseeHL32	274	500	0
060209	11:51	700	HL32 television	275	6132	television
060209	11:51	700	JSHL32	276	4537	5
060209	11:51	700	JSseeLH19	277	500	0
060209	11:51	700	LH19 snob	278	2329	pig
060209	11:51	700	JSLH19	279	2428	8
060209	11:51	700	JSseeHL51	280	500	0
060209	11:51	700	HL51 color	281	2336	color
060209	11:51	700	JSHL51	282	1891	6
060209	11:51	700	JSseeHL50	283	500	0
060209	11:51	700	HL50 doctor	284	4495	doctor
060209	11:51	700	JSHL50	285	2635	6
060209	11:51	700	JSseeUR53	286	500	0
060209	11:51	700	UR53 hell	287	3047	hero
060209	11:51	700	JSUR53	288	9922	5
060209	11:51	700	JSseeUR87	289	500	0
060209	11:51	700	UR87 duty	290	4079	duty
060209	11:51	700	JSUR87	291	4254	6
060209	11:51	700	JSseeHL25	292	500	0
060209	11:51	700	HL25 cut	293	3291	cut
060209	11:51	700	JSHL25	294	3004	5
060209	11:51	700	JSseeHL14	295	500	0
060209	11:51	700	HL14 milk	296	2695	milk
060209	11:51	700	JSHL14	297	4210	6
060209	11:51	700	JSseeHL10	298	500	0
060209	11:51	700	HL10 cow	299	6745	crazy
060209	11:51	700	JSHL10	300	5899	6
060209	11:51	700	JSseeUR01	301	500	0
060209	11:51	700	UR01 file	302	2496	file
060209	11:51	700	JSUR01	303	4636	5
060209	11:51	700	JSseeUR55	304	500	0
060209	11:51	700	UR55 bargain	305	4927	minister
060209	11:51	700	JSUR55	306	5329	7
060209	11:51	700	JSseeUR07	307	500	0
060209	11:51	700	UR07 gathering	308	4319	gauge
060209	11:51	700	JSUR07	309	7483	5
060209	11:51	700	JSseeUR74	310	500	0
060209	11:51	700	UR74 suitcase	311	3003	sunset
060209	11:51	700	JSUR74	312	5536	6
060209	11:51	700	JSseeUR34	313	500	0
060209	11:51	700	UR34 charity	314	3453	charity
060209	11:51	700	JSUR34	315	2639	8
060209	11:51	700	JSseeLH54	316	500	0
060209	11:51	700	LH54 limit	317	2378	limit
060209	11:51	700	JSLH54	318	4355	5
060209	11:51	700	JSseeUR54	319	500	0
060209	11:51	700	UR54 steam	320	7531	stero
060209	11:51	700	JSUR54	321	4907	5
060209	11:51	700	JSseeUR24	322	500	0
060209	11:51	700	UR24 kid	323	3275	kin
060209	11:51	700	JSUR24	324	2517	5
060209	11:51	700	JAseePR26	1	500	0
060209	11:51	700	PR26 colonel	2	10027	college
060209	11:51	700	JAPR26	3	20278	8
060209	11:51	700	JAseePR24	4	500	0
060209	11:51	700	PR24 pest	5	7135	development
060209	11:51	700	JAPR24	6	7344	9
060209	11:51	700	JAseePR08	7	500	0
060209	11:51	700	PR08 beef	8	35237	bee
060209	11:51	700	JAPR08	9	3012	4
060209	11:51	700	JAseePR05	10	500	0
060209	11:51	700	PR05 calf	11	3398	calf
060209	11:51	700	JAPR05	12	4227	7
060209	11:51	700	JAseePR14	13	500	0
060209	11:51	700	PR14 religion	14	7440	religion
060209	11:51	700	JAPR14	15	4941	8
060209	11:51	700	JAseePR19	16	500	0
060209	11:51	700	PR19 void	17	3923	void
060209	11:51	700	JAPR19	18	4249	6
060209	11:51	700	JAseePR12	19	500	0
060209	11:51	700	PR12 royalty	20	4133	loyality
060209	11:51	700	JAPR12	21	8729	7
060209	11:51	700	JAseePR02	22	500	0
060209	11:51	700	PR02 wrinkle	23	4891	winkle
060209	11:51	700	JAPR02	24	5054	3
060209	11:51	700	JAseePR10	25	500	0
060209	11:51	700	PR10 camel	26	3504	camel
060209	11:51	700	JAPR10	27	3888	9
060209	11:51	700	JAseePR15	28	500	0
060209	11:51	700	PR15 depletion	29	5676	one
060209	11:51	700	JAPR15	30	6949	8
060209	11:51	700	JAseePR20	31	500	0
060209	11:51	700	PR20 advertisement	32	5252	adverse
060209	11:51	700	JAPR20	33	6151	2
060209	11:51	700	JAseePR29	34	500	0
060209	11:51	700	PR29 mermaid	35	4097	memory
060209	11:51	700	JAPR29	36	5135	1
060209	11:51	700	JAseePR16	37	500	0
060209	11:51	700	PR16 compulsion	38	3716	online
060209	11:51	700	JAPR16	39	6619	5
060209	11:51	700	JAseePR22	40	500	0
060209	11:51	700	PR22 ass	41	8776	asprin
060209	11:51	700	JAPR22	42	3578	4
060209	11:51	700	JAseeUR43	1	500	0
060209	11:51	700	UR43 balloon	2	4540	balloon
060209	11:51	700	JAUR43	3	4391	3
060209	11:51	700	JAseeUR102	4	500	0
060209	11:51	700	UR102 velocity	5	4533	victory
060209	11:51	700	JAUR102	6	5472	2
060209	11:51	700	JAseeHL08	7	500	0
060209	11:51	700	HL08 math	8	2343	math
060209	11:51	700	JAHL08	9	9225	8
060209	11:51	700	JAseeLH13	10	500	0
060209	11:51	700	LH13 crease	11	6613	stitch
060209	11:51	700	JALH13	12	12949	10
060209	11:51	700	JAseeLH08	13	500	0
060209	11:51	700	LH08 house	14	2590	house
060209	11:51	700	JALH08	15	2557	5
060209	11:51	700	JAseeUR71	16	500	0
060209	11:51	700	UR71 padding	17	3052	paddle
060209	11:51	700	JAUR71	18	4071	1
060209	11:51	700	JAseeUR25	19	500	0
060209	11:51	700	UR25 partner	20	3596	pasta
060209	11:51	700	JAUR25	21	4879	3
060209	11:51	700	JAseeLH47	22	500	0
060209	11:51	700	LH47 detergent	23	10289	detergent
060209	11:51	700	JALH47	24	7136	2
060209	11:51	700	JAseeLH36	25	500	0
060209	11:51	700	LH36 gang	26	2671	gang
060209	11:51	700	JALH36	27	7915	6
060209	11:51	700	JAseeHL15	28	500	0
060209	11:51	700	HL15 bomb	29	11488	palm
060209	11:51	700	JAHL15	30	9027	2
060209	11:51	700	JAseeUR84	31	500	0
060209	11:51	700	UR84 flag	32	3648	flag
060209	11:51	700	JAUR84	33	2921	2
060209	11:51	700	JAseeHL29	34	500	0
060209	11:51	700	HL29 ring	35	2248	ring
060209	11:51	700	JAHL29	36	6431	1
060209	11:51	700	JAseeLH29	37	500	0
060209	11:51	700	LH29 closet	38	2908	closet
060209	11:51	700	JALH29	39	7942	4
060209	11:51	700	JAseeLH52	40	500	0
060209	11:51	700	LH52 bureau	41	6210	average
060209	11:51	700	JALH52	42	4196	1
060209	11:51	700	JAseeLH48	43	500	0
060209	11:51	700	LH48 outcome	44	7515	time
060209	11:51	700	JALH48	45	5747	8
060209	11:51	700	JAseeUR29	46	500	0
060209	11:51	700	UR29 patrol	47	4879	patrol
060209	11:51	700	JAUR29	48	4683	2
060209	11:51	700	JAseeLH28	49	500	0
060209	11:51	700	LH28 vagrant	50	4461	single
060209	11:51	700	JALH28	51	6915	5
060209	11:51	700	JAseeHL52	52	500	0
060209	11:51	700	HL52 sand	53	1827	sand
060209	11:51	700	JAHL52	54	5100	7
060209	11:51	700	JAseeHL44	55	500	0
060209	11:51	700	HL44 baseball	56	4075	baseball
060209	11:51	700	JAHL44	57	5682	9
060209	11:51	700	JAseeUR37	58	500	0
060209	11:51	700	UR37 cloth	59	2817	cloth
060209	11:51	700	JAUR37	60	2663	6
060209	11:51	700	JAseeUR81	61	500	0
060209	11:51	700	UR81 acid	62	7417	academy
060209	11:51	700	JAUR81	63	4717	1
060209	11:51	700	JAseeUR88	64	500	0
060209	11:51	700	UR88 circus	65	3517	city
060209	11:51	700	JAUR88	66	5236	8
060209	11:51	700	JAseeLH34	67	500	0
060209	11:51	700	LH34 panel	68	2486	panel
060209	11:51	700	JALH34	69	3746	4
060209	11:51	700	JAseeHL54	70	500	0
060209	11:51	700	HL54 indian	71	6997	tendacy
060209	11:51	700	JAHL54	72	6036	2
060209	11:51	700	JAseeUR48	73	500	0
060209	11:51	700	UR48 democracy	74	3923	animal
060209	11:51	700	JAUR48	75	5793	7
060209	11:51	700	JAseeUR40	76	500	0
060209	11:51	700	UR40 dancer	77	2322	dance
060209	11:51	700	JAUR40	78	4094	3
060209	11:51	700	JAseeHL38	79	500	0
060209	11:51	700	HL38 boat	80	2233	boat
060209	11:51	700	JAHL38	81	4833	9
060209	11:51	700	JAseeLH18	82	500	0
060209	11:51	700	LH18 edge	83	2508	edge
060209	11:51	700	JALH18	84	6295	10
060209	11:51	700	JAseeUR89	85	500	0
060209	11:51	700	UR89 crow	86	2898	crow
060209	11:51	700	JAUR89	87	6252	8
060209	11:51	700	JAseeUR18	88	500	0
060209	11:51	700	UR18 relief	89	3282	relief
060209	11:51	700	JAUR18	90	3099	6
060209	11:51	700	JAseeUR80	91	500	0
060209	11:51	700	UR80 antique	92	2074	cure
060209	11:51	700	JAUR80	93	4824	9
060209	11:51	700	JAseeUR15	94	500	0
060209	11:51	700	UR15 compass	95	3412	compass
060209	11:51	700	JAUR15	96	4463	1
060209	11:51	700	JAseeUR08	97	500	0
060209	11:51	700	UR08 assistant	98	6507	elevator
060209	11:51	700	JAUR08	99	4615	5
060209	11:51	700	JAseeUR94	100	500	0
060209	11:51	700	UR94 bristle	101	5716	suit
060209	11:51	700	JAUR94	102	3435	7
060209	11:51	700	JAseeUR61	103	500	0
060209	11:51	700	UR61 suicide	104	5851	sack
060209	11:51	700	JAUR61	105	4269	4
060209	11:51	700	JAseeUR05	106	500	0
060209	11:51	700	UR05 lease	107	3185	lease
060209	11:51	700	JAUR05	108	4495	2
060209	11:51	700	JAseeHL28	109	500	0
060209	11:51	700	HL28 bird	110	2529	bird
060209	11:51	700	JAHL28	111	4843	3
060209	11:51	700	JAseeUR73	112	500	0
060209	11:51	700	UR73 kite	113	2942	tissue
060209	11:51	700	JAUR73	114	7055	3
060209	11:51	700	JAseeUR79	115	500	0
060209	11:51	700	UR79 beetle	116	2705	beet
060209	11:51	700	JAUR79	117	3980	1
060209	11:51	700	JAseeUR31	118	500	0
060209	11:51	700	UR31 diameter	119	4276	diameter
060209	11:51	700	JAUR31	120	8547	4
060209	11:51	700	JAseeUR26	121	500	0
060209	11:51	700	UR26 eternity	122	3763	eternity
060209	11:51	700	JAUR26	123	2928	2
060209	11:51	700	JAseeLH21	124	500	0
060209	11:51	700	LH21 monument	125	2486	moment
060209	11:51	700	JALH21	126	1970	1
060209	11:51	700	JAseeHL48	127	500	0
060209	11:51	700	HL48 airplane	128	6371	airplane
060209	11:51	700	JAHL48	129	7926	9
060209	11:51	700	JAseeLH10	130	500	0
060209	11:51	700	LH10 care	131	2634	care
060209	11:51	700	JALH10	132	6880	8
060209	11:51	700	JAseeLH31	133	500	0
060209	11:51	700	LH31 self	134	2186	self
060209	11:51	700	JALH31	135	4731	3
060209	11:51	700	JAseeUR38	136	500	0
060209	11:51	700	UR38 energy	137	2595	energy
060209	11:51	700	JAUR38	138	2827	1
060209	11:51	700	JAseeUR86	139	500	0
060209	11:51	700	UR86 boulevard	140	3334	board
060209	11:51	700	JAUR86	141	3781	4
060209	11:51	700	JAseeUR90	142	500	0
060209	11:51	700	UR90 sailing	143	2678	sail
060209	11:51	700	JAUR90	144	1833	1
060209	11:51	700	JAseeHL30	145	500	0
060209	11:51	700	HL30 air	146	2359	air
060209	11:51	700	JAHL30	147	5033	9
060209	11:51	700	JAseeUR57	148	500	0
060209	11:51	700	UR57 benefit	149	3492	benefit
060209	11:51	700	JAUR57	150	4517	4
060209	11:51	700	JAseeLH12	151	500	0
060209	11:51	700	LH12 addition	152	3485	ball
060209	11:51	700	JALH12	153	5646	6
060209	11:51	700	JAseeHL04	154	500	0
060209	11:51	700	HL04 beer	155	2422	beer
060209	11:51	700	JAHL04	156	5917	8
060209	11:51	700	JAseeUR11	157	500	0
060209	11:51	700	UR11 foundation	158	4305	foundation
060209	11:51	700	JAUR11	159	5590	4
060209	11:51	700	JAseeLH33	160	500	0
060209	11:51	700	LH33 fable	161	3312	fable
060209	11:51	700	JALH33	162	10160	7
060209	11:51	700	JAseeHL11	163	500	0
060209	11:51	700	HL11 rock	164	2483	rock
060209	11:51	700	JAHL11	165	5087	9
060209	11:51	700	JAseeLH06	166	500	0
060209	11:51	700	LH06 element	167	2775	element
060209	11:51	700	JALH06	168	3583	1
060209	11:51	700	JAseeHL37	169	500	0
060209	11:51	700	HL37 thread	170	9969	thread
060209	11:51	700	JAHL37	171	5415	8
060209	11:51	700	JAseeLH44	172	500	0
060209	11:51	700	LH44 vessel	173	2825	vessel
060209	11:51	700	JALH44	174	3503	4
060209	11:51	700	JAseeLH39	175	500	0
060209	11:51	700	LH39 reward	176	4772	tile
060209	11:51	700	JALH39	177	5212	9
060209	11:51	700	JAseeLH49	178	500	0
060209	11:51	700	LH49 kindness	179	2816	friend
060209	11:51	700	JALH49	180	4189	10
060209	11:51	700	JAseeUR39	181	500	0
060209	11:51	700	UR39 faith	182	2924	faith
060209	11:51	700	JAUR39	183	3270	4
060209	11:51	700	JAseeUR33	184	500	0
060209	11:51	700	UR33 horror	185	6069	hero
060209	11:51	700	JAUR33	186	4374	2
060209	11:51	700	JAseeUR02	187	500	0
060209	11:51	700	UR02 comma	188	3333	common
060209	11:51	700	JAUR02	189	4412	6
060209	11:51	700	JAseeUR93	190	500	0
060209	11:51	700	UR93 catcher	191	3522	ranch
060209	11:51	700	JAUR93	192	5569	1
060209	11:51	700	JAseeHL19	193	500	0
060209	11:51	700	HL19 car	194	4548	crane
060209	11:51	700	JAHL19	195	5734	8
060209	11:51	700	JAseeUR49	196	500	0
060209	11:51	700	UR49 casket	197	2523	cash
060209	11:51	700	JAUR49	198	4982	1
060209	11:51	700	JAseeHL35	199	500	0
060209	11:51	700	HL35 cake	200	2579	cake
060209	11:51	700	JAHL35	201	3435	9
060209	11:51	700	JAseeUR44	202	500	0
060209	11:51	700	UR44 rot	203	3811	jewel
060209	11:51	700	JAUR44	204	2750	6
060209	11:51	700	JAseeUR91	205	500	0
060209	11:51	700	UR91 anteater	206	4252	anteater
060209	11:51	700	JAUR91	207	4331	10
060209	11:51	700	JAseeHL46	208	500	0
060209	11:51	700	HL46 butter	209	3364	butter
060209	11:51	700	JAHL46	210	5474	1
060209	11:51	700	JAseeUR09	211	500	0
060209	11:51	700	UR09 education	212	9761	educator
060209	11:51	700	JAUR09	213	4207	1
060209	11:51	700	JAseeUR83	214	500	0
060209	11:51	700	UR83 lesson	215	3742	lesson
060209	11:51	700	JAUR83	216	4388	2
060209	11:51	700	JAseeHL18	217	500	0
060209	11:51	700	HL18 paper	218	2251	paper
060209	11:51	700	JAHL18	219	3521	9
060209	11:51	700	JAseeLH16	220	500	0
060209	11:51	700	LH16 power	221	2710	power
060209	11:51	700	JALH16	222	3408	8
060209	11:51	700	JAseeHL06	223	500	0
060209	11:51	700	HL06 egg	224	1682	egg
060209	11:51	700	JAHL06	225	2873	1
060209	11:51	700	JAseeHL20	226	500	0
060209	11:51	700	HL20 wine	227	3306	wine
060209	11:51	700	JAHL20	228	5011	9
060209	11:51	700	JAseeHL26	229	500	0
060209	11:51	700	HL26 light	230	2198	eight
060209	11:51	700	JAHL26	231	5431	3
060209	11:51	700	JAseeLH42	232	500	0
060209	11:51	700	LH42 thought	233	3593	thought
060209	11:51	700	JALH42	234	5117	5
060209	11:51	700	JAseeUR41	235	500	0
060209	11:51	700	UR41 chime	236	2939	chime
060209	11:51	700	JAUR41	237	4980	5
060209	11:51	700	JAseePR18	238	500	0
060209	11:51	700	PR18 clorox	239	4297	clorox
060209	11:51	700	JAPR18	240	5607	2
060209	11:51	700	JAseeLH35	241	500	0
060209	11:51	700	LH35 shelter	242	3088	shelter
060209	11:51	700	JALH35	243	3794	7
060209	11:51	700	JAseeUR16	244	500	0
060209	11:51	700	UR16 century	245	4171	century
060209	11:51	700	JAUR16	246	2974	3
060209	11:51	700	JAseeUR108	247	500	0
060209	11:51	700	UR108 shield	248	4923	shop
060209	11:51	700	JAUR108	249	5572	9
060209	11:51	700	JAseeHL12	250	500	0
060209	11:51	700	HL12 space	251	2111	space
060209	11:51	700	JAHL12	252	2268	4
060209	11:51	700	JAseeUR23	253	500	0
060209	11:51	700	UR23 abundance	254	9151	abundance
060209	11:51	700	JAUR23	255	5232	9
060209	11:51	700	JAseeUR104	256	500	0
060209	11:51	700	UR104 aardvark	257	7586	advocate
060209	11:51	700	JAUR104	258	4912	10
060209	11:51	700	JAseeUR56	259	500	0
060209	11:51	700	UR56 antler	260	5152	stress
060209	11:51	700	JAUR56	261	3247	9
060209	11:51	700	JAseeHL16	262	500	0
060209	11:51	700	HL16 broom	263	4248	broom
060209	11:51	700	JAHL16	264	5839	7
060209	11:51	700	JAseeHL40	265	500	0
060209	11:51	700	HL40 temperature	266	4702	temperature
060209	11:51	700	JAHL40	267	2993	2
060209	11:51	700	JAseeUR101	268	500	0
060209	11:51	700	UR101 beard	269	2140	bread
060209	11:51	700	JAUR101	270	3999	4
060209	11:51	700	JAseeLH45	271	500	0
060209	11:51	700	LH45 intellect	272	7071	intelligent
060209	11:51	700	JALH45	273	5083	8
060209	11:51	700	JAseeUR92	274	500	0
060209	11:51	700	UR92 dart	275	1988	dark
060209	11:51	700	JAUR92	276	1438	1
060209	11:51	700	JAseeUR19	277	500	0
060209	11:51	700	UR19 bison	278	2557	basin
060209	11:51	700	JAUR19	279	3495	3
060209	11:51	700	JAseeUR99	280	500	0
060209	11:51	700	UR99 branch	281	2780	branch
060209	11:51	700	JAUR99	282	3395	2
060209	11:51	700	JAseeUR10	283	500	0
060209	11:51	700	UR10 tribe	284	3501	tribe
060209	11:51	700	JAUR10	285	3933	5
060209	11:51	700	JAseeUR72	286	500	0
060209	11:51	700	UR72 band	287	2095	brand
060209	11:51	700	JAUR72	288	3749	7
060209	11:51	700	JAseeUR100	289	500	0
060209	11:51	700	UR100 comb	290	3103	comb
060209	11:51	700	JAUR100	291	5160	1
060209	11:51	700	JAseeLH26	292	500	0
060209	11:51	700	LH26 center	293	2982	center
060209	11:51	700	JALH26	294	4060	5
060209	11:51	700	JAseeUR03	295	500	0
060209	11:51	700	UR03 vehicle	296	5402	vehicle
060209	11:51	700	JAUR03	297	3047	4
060209	11:51	700	JAseeHL22	298	500	0
060209	11:51	700	HL22 problem	299	2456	problem
060209	11:51	700	JAHL22	300	2493	8
060209	11:51	700	JAseeLH15	301	500	0
060209	11:51	700	LH15 blessing	302	3151	bless
060209	11:51	700	JALH15	303	3190	9
060209	11:51	700	JAseeHL27	304	500	0
060209	11:51	700	HL27 rain	305	2585	rain
060209	11:51	700	JAHL27	306	8817	9
060209	11:51	700	JAseeHL02	307	500	0
060209	11:51	700	HL02 flower	308	2374	flower
060209	11:51	700	JAHL02	309	2087	8
060209	11:51	700	JAseeLH41	310	500	0
060209	11:51	700	LH41 girl	311	1690	girl
060209	11:51	700	JALH41	312	4425	6
060209	11:51	700	JAseeHL13	313	500	0
060209	11:51	700	HL13 map	314	1846	map
060209	11:51	700	JAHL13	315	2431	8
060209	11:51	700	JAseeUR97	316	500	0
060209	11:51	700	UR97 banner	317	4547	banquet
060209	11:51	700	JAUR97	318	5285	3
060209	11:51	700	JAseeLH40	319	500	0
060209	11:51	700	LH40 field	320	2364	field
060209	11:51	700	JALH40	321	2790	5
060209	11:51	700	JAseeUR51	322	500	0
060209	11:51	700	UR51 cabbage	323	5467	cabbage
060209	11:51	700	JAUR51	324	2557	1
060209	11:51	700	JAseeUR12	325	500	0
060209	11:51	700	UR12 unicorn	326	3187	spoon
060209	11:51	700	JAUR12	327	2569	7