date	time	subject	trialcode	trialnum	latency	response
060309	11:56	702	JSseePR17	1	500	0
060309	11:56	702	PR17 emerald	2	19608	&
060309	11:56	702	JSPR17	3	26225	10
060309	11:56	702	JSseePR27	4	500	0
060309	11:56	702	PR27 wheat	5	4767	time
060309	11:56	702	JSPR27	6	28199	5
060309	11:56	702	JSseePR07	7	500	0
060309	11:56	702	PR07 bog	8	6190	jazz
060309	11:56	702	JSPR07	9	11464	7
060309	11:56	702	JSseePR23	10	500	0
060309	11:56	702	PR23 companion	11	6930	comparison
060309	11:56	702	JSPR23	12	4644	2
060309	11:56	702	JSseePR06	13	500	0
060309	11:56	702	PR06 beast	14	3496	beast
060309	11:56	702	JSPR06	15	5736	5
060309	11:56	702	JSseePR09	16	500	0
060309	11:56	702	PR09 album	17	4788	alarm
060309	11:56	702	JSPR09	18	9419	2
060309	11:56	702	JSseePR21	19	500	0
060309	11:56	702	PR21 innocence	20	5702	correct
060309	11:56	702	JSPR21	21	2831	1
060309	11:56	702	JSseePR01	22	500	0
060309	11:56	702	PR01 cash	23	3833	cashew
060309	11:56	702	JSPR01	24	11522	5
060309	11:56	702	JSseePR11	25	500	0
060309	11:56	702	PR11 ounce	26	4986	oustide
060309	11:56	702	JSPR11	27	2633	1
060309	11:56	702	JSseePR25	28	500	0
060309	11:56	702	PR25 saliva	29	4700	saltine
060309	11:56	702	JSPR25	30	2711	2
060309	11:56	702	JSseePR30	31	500	0
060309	11:56	702	PR30 maiden	32	5055	majority
060309	11:56	702	JSPR30	33	1539	2
060309	11:56	702	JSseePR03	34	500	0
060309	11:56	702	PR03 acre	35	3606	acorn
060309	11:56	702	JSPR03	36	1545	2
060309	11:56	702	JSseePR13	37	500	0
060309	11:56	702	PR13 ambition	38	10236	amueter
060309	11:56	702	JSPR13	39	3246	2
060309	11:56	702	JSseePR04	40	500	0
060309	11:56	702	PR04 diaper	41	3519	earring
060309	11:56	702	JSPR04	42	1686	1
060309	11:56	702	JSseePR28	43	500	0
060309	11:56	702	PR28 challenge	44	4499	chamber
060309	11:56	702	JSPR28	45	1927	1
060309	11:56	702	JSseeUR42	1	500	0
060309	11:56	702	UR42 sergeant	2	3534	servant
060309	11:56	702	JSUR42	3	4076	3
060309	11:56	702	JSseeUR52	4	500	0
060309	11:56	702	UR52 knight	5	3584	knot
060309	11:56	702	JSUR52	6	1085	1
060309	11:56	702	JSseeLH01	7	500	0
060309	11:56	702	LH01 brain	8	2932	since
060309	11:56	702	JSLH01	9	5101	2
060309	11:56	702	JSseeHL45	10	500	0
060309	11:56	702	HL45 words	11	3452	language
060309	11:56	702	JSHL45	12	2382	2
060309	11:56	702	JSseeLH03	13	500	0
060309	11:56	702	LH03 yard	14	3220	court
060309	11:56	702	JSLH03	15	2713	2
060309	11:56	702	JSseeHL21	16	500	0
060309	11:56	702	HL21 empire	17	3464	greek
060309	11:56	702	JSHL21	18	2209	2
060309	11:56	702	JSseeLH38	19	500	0
060309	11:56	702	LH38 paint	20	3711	paint
060309	11:56	702	JSLH38	21	4246	2
060309	11:56	702	JSseeLH43	22	500	0
060309	11:56	702	LH43 noise	23	4027	scenery
060309	11:56	702	JSLH43	24	1997	2
060309	11:56	702	JSseeLH37	25	500	0
060309	11:56	702	LH37 pad	26	5924	asprin
060309	11:56	702	JSLH37	27	946	6
060309	11:56	702	JSseeHL07	28	500	0
060309	11:56	702	HL07 king	29	3327	chair
060309	11:56	702	JSHL07	30	12415	4
060309	11:56	702	JSseeHL39	31	500	0
060309	11:56	702	HL39 book	32	2839	reader
060309	11:56	702	JSHL39	33	716	2
060309	11:56	702	JSseeLH24	34	500	0
060309	11:56	702	LH24 feeling	35	6763	beleif
060309	11:56	702	JSLH24	36	1173	2
060309	11:56	702	JSseeHL42	37	500	0
060309	11:56	702	HL42 pie	38	3343	pie
060309	11:56	702	JSHL42	39	5775	2
060309	11:56	702	JSseeUR30	40	500	0
060309	11:56	702	UR30 lover	41	3241	lover
060309	11:56	702	JSUR30	42	3708	1
060309	11:56	702	JSseeUR95	43	500	0
060309	11:56	702	UR95 fool	44	2449	fool
060309	11:56	702	JSUR95	45	3247	4
060309	11:56	702	JSseeLH20	46	500	0
060309	11:56	702	LH20 violation	47	5887	victim
060309	11:56	702	JSLH20	48	2967	1
060309	11:56	702	JSseeUR96	49	500	0
060309	11:56	702	UR96 dessert	50	3052	dream
060309	11:56	702	JSUR96	51	2288	1
060309	11:56	702	JSseeUR66	52	500	0
060309	11:56	702	UR66 chief	53	3210	chilli
060309	11:56	702	JSUR66	54	2095	1
060309	11:56	702	JSseeHL17	55	500	0
060309	11:56	702	HL17 soap	56	3474	suds
060309	11:56	702	JSHL17	57	1307	2
060309	11:56	702	JSseeUR06	58	500	0
060309	11:56	702	UR06 cello	59	2960	celius
060309	11:56	702	JSUR06	60	816	2
060309	11:56	702	JSseeLH32	61	500	0
060309	11:56	702	LH32 capacity	62	15658	capatability
060309	11:56	702	JSLH32	63	2087	1
060309	11:56	702	JSseeUR103	64	500	0
060309	11:56	702	UR103 hula	65	4491	humor
060309	11:56	702	JSUR103	66	6567	6
060309	11:56	702	JSseeHL23	67	500	0
060309	11:56	702	HL23 baby	68	2631	baby
060309	11:56	702	JSHL23	69	2165	2
060309	11:56	702	JSseeUR63	70	500	0
060309	11:56	702	UR63 alley	71	3709	allergy
060309	11:56	702	JSUR63	72	3060	2
060309	11:56	702	JSseeLH11	73	500	0
060309	11:56	702	LH11 cancer	74	3836	crab
060309	11:56	702	JSLH11	75	1430	2
060309	11:56	702	JSseeHL03	76	500	0
060309	11:56	702	HL03 cigarette	77	4989	cigarette
060309	11:56	702	JSHL03	78	4180	3
060309	11:56	702	JSseeUR28	79	500	0
060309	11:56	702	UR28 bang	80	5796	bandit
060309	11:56	702	JSUR28	81	1872	2
060309	11:56	702	JSseeLH04	82	500	0
060309	11:56	702	LH04 grade	83	3860	grade
060309	11:56	702	JSLH04	84	2340	2
060309	11:56	702	JSseeHL01	85	500	0
060309	11:56	702	HL01 elephant	86	4260	elephant
060309	11:56	702	JSHL01	87	2131	3
060309	11:56	702	JSseeLH27	88	500	0
060309	11:56	702	LH27 condition	89	5212	controller
060309	11:56	702	JSLH27	90	2378	2
060309	11:56	702	JSseeLH51	91	500	0
060309	11:56	702	LH51 exit	92	3416	exit
060309	11:56	702	JSLH51	93	1235	1
060309	11:56	702	JSseeLH07	94	500	0
060309	11:56	702	LH07 rear	95	2643	end
060309	11:56	702	JSLH07	96	1064	2
060309	11:56	702	JSseeHL41	97	500	0
060309	11:56	702	HL41 hand	98	2273	hand
060309	11:56	702	JSHL41	99	1798	2
060309	11:56	702	JSseeUR50	100	500	0
060309	11:56	702	UR50 crane	101	3486	cramp
060309	11:56	702	JSUR50	102	1943	3
060309	11:56	702	JSseeUR76	103	500	0
060309	11:56	702	UR76 dignity	104	8840	calculator
060309	11:56	702	JSUR76	105	1527	3
060309	11:56	702	JSseeUR69	106	500	0
060309	11:56	702	UR69 flashlight	107	5338	flashlight
060309	11:56	702	JSUR69	108	1018	1
060309	11:56	702	JSseeUR85	109	500	0
060309	11:56	702	UR85 stroke	110	3259	stroke
060309	11:56	702	JSUR85	111	1846	2
060309	11:56	702	JSseeHL47	112	500	0
060309	11:56	702	HL47 horse	113	3020	horse
060309	11:56	702	JSHL47	114	1097	3
060309	11:56	702	JSseeHL49	115	500	0
060309	11:56	702	HL49 spice	116	2400	spice
060309	11:56	702	JSHL49	117	872	2
060309	11:56	702	JSseeUR22	118	500	0
060309	11:56	702	UR22 thesaurus	119	6384	start
060309	11:56	702	JSUR22	120	546	1
060309	11:56	702	JSseeLH25	121	500	0
060309	11:56	702	LH25 track	122	3537	track
060309	11:56	702	JSLH25	123	959	1
060309	11:56	702	JSseeUR82	124	500	0
060309	11:56	702	UR82 campus	125	4667	campus
060309	11:56	702	JSUR82	126	968	1
060309	11:56	702	JSseeLH02	127	500	0
060309	11:56	702	LH02 harm	128	2572	harm
060309	11:56	702	JSLH02	129	1596	2
060309	11:56	702	JSseeLH14	130	500	0
060309	11:56	702	LH14 note	131	2693	note
060309	11:56	702	JSLH14	132	1128	1
060309	11:56	702	JSseeUR70	133	500	0
060309	11:56	702	UR70 pajamas	134	5261	pajamas
060309	11:56	702	JSUR70	135	856	2
060309	11:56	702	JSseeHL31	136	500	0
060309	11:56	702	HL31 war	137	2753	war
060309	11:56	702	JSHL31	138	1810	3
060309	11:56	702	JSseeLH50	139	500	0
060309	11:56	702	LH50 measure	140	3601	measure
060309	11:56	702	JSLH50	141	588	2
060309	11:56	702	JSseeUR60	142	500	0
060309	11:56	702	UR60 plaque	143	3785	plaque
060309	11:56	702	JSUR60	144	620	2
060309	11:56	702	JSseeUR68	145	500	0
060309	11:56	702	UR68 fatigue	146	3655	fatigue
060309	11:56	702	JSUR68	147	1121	2
060309	11:56	702	JSseeUR20	148	500	0
060309	11:56	702	UR20 climax	149	3798	climax
060309	11:56	702	JSUR20	150	1520	3
060309	11:56	702	JSseeHL09	151	500	0
060309	11:56	702	HL09 chalk	152	3212	chalk
060309	11:56	702	JSHL09	153	1528	3
060309	11:56	702	JSseeLH09	154	500	0
060309	11:56	702	LH09 piece	155	4868	piece
060309	11:56	702	JSLH09	156	1040	2
060309	11:56	702	JSseeUR27	157	500	0
060309	11:56	702	UR27 consequence	158	5544	consequence
060309	11:56	702	JSUR27	159	1223	2
060309	11:56	702	JSseeLH30	160	500	0
060309	11:56	702	LH30 assignment	161	4832	assignment
060309	11:56	702	JSLH30	162	622	6
060309	11:56	702	JSseeUR67	163	500	0
060309	11:56	702	UR67 producer	164	4145	producer
060309	11:56	702	JSUR67	165	1893	2
060309	11:56	702	JSseeUR13	166	500	0
060309	11:56	702	UR13 almanac	167	4529	almanac
060309	11:56	702	JSUR13	168	1116	3
060309	11:56	702	JSseeUR107	169	500	0
060309	11:56	702	UR107 cocaine	170	3226	spider
060309	11:56	702	JSUR107	171	1822	5
060309	11:56	702	JSseeUR65	172	500	0
060309	11:56	702	UR65 checkers	173	3604	crackers
060309	11:56	702	JSUR65	174	1848	5
060309	11:56	702	JSseeUR59	175	500	0
060309	11:56	702	UR59 copper	176	3766	copier
060309	11:56	702	JSUR59	177	1746	6
060309	11:56	702	JSseeHL53	178	500	0
060309	11:56	702	HL53 fish	179	1996	fish
060309	11:56	702	JSHL53	180	749	4
060309	11:56	702	JSseeUR47	181	500	0
060309	11:56	702	UR47 chimpanzee	182	5395	chimpanzee
060309	11:56	702	JSUR47	183	577	2
060309	11:56	702	JSseeUR58	184	500	0
060309	11:56	702	UR58 answer	185	3566	answer
060309	11:56	702	JSUR58	186	995	1
060309	11:56	702	JSseeLH53	187	500	0
060309	11:56	702	LH53 core	188	1910	core
060309	11:56	702	JSLH53	189	411	1
060309	11:56	702	JSseeUR105	190	500	0
060309	11:56	702	UR105 curtain	191	3943	curtain
060309	11:56	702	JSUR105	192	428	4
060309	11:56	702	JSseeHL05	193	500	0
060309	11:56	702	HL05 mountain	194	5712	mountain
060309	11:56	702	JSHL05	195	496	1
060309	11:56	702	JSseeUR64	196	500	0
060309	11:56	702	UR64 fist	197	5456	first
060309	11:56	702	JSUR64	198	947	1
060309	11:56	702	JSseeUR32	199	500	0
060309	11:56	702	UR32 navigator	200	4304	navigator
060309	11:56	702	JSUR32	201	1021	2
060309	11:56	702	JSseeUR04	202	500	0
060309	11:56	702	UR04 marsh	203	2510	mask
060309	11:56	702	JSUR04	204	481	2
060309	11:56	702	JSseeHL34	205	500	0
060309	11:56	702	HL34 hunger	206	2523	hunger
060309	11:56	702	JSHL34	207	1118	8
060309	11:56	702	JSseeUR106	208	500	0
060309	11:56	702	UR106 eagle	209	3955	eagle
060309	11:56	702	JSUR106	210	656	7
060309	11:56	702	JSseeUR77	211	500	0
060309	11:56	702	UR77 uncle	212	2353	uncle
060309	11:56	702	JSUR77	213	2715	4
060309	11:56	702	JSseeUR35	214	500	0
060309	11:56	702	UR35 cause	215	2635	cause
060309	11:56	702	JSUR35	216	873	1
060309	11:56	702	JSseeHL43	217	500	0
060309	11:56	702	HL43 money	218	3513	money
060309	11:56	702	JSHL43	219	688	8
060309	11:56	702	JSseeLH23	220	500	0
060309	11:56	702	LH23 possibility	221	5552	responsibility
060309	11:56	702	JSLH23	222	1799	6
060309	11:56	702	JSseeUR36	223	500	0
060309	11:56	702	UR36 denim	224	3151	denim
060309	11:56	702	JSUR36	225	1190	5
060309	11:56	702	JSseeHL24	226	500	0
060309	11:56	702	HL24 eye	227	4384	eye
060309	11:56	702	JSHL24	228	1433	1
060309	11:56	702	JSseeLH22	229	500	0
060309	11:56	702	LH22 crowd	230	4697	crowd
060309	11:56	702	JSLH22	231	965	2
060309	11:56	702	JSseeLH05	232	500	0
060309	11:56	702	LH05 chain	233	3721	chain
060309	11:56	702	JSLH05	234	768	2
060309	11:56	702	JSseeUR45	235	500	0
060309	11:56	702	UR45 bridge	236	3988	marriage
060309	11:56	702	JSUR45	237	1031	9
060309	11:56	702	JSseeHL33	238	500	0
060309	11:56	702	HL33 joke	239	2848	joke
060309	11:56	702	JSHL33	240	773	2
060309	11:56	702	JSseeUR14	241	500	0
060309	11:56	702	UR14 fudge	242	3945	felony
060309	11:56	702	JSUR14	243	574	5
060309	11:56	702	JSseeUR46	244	500	0
060309	11:56	702	UR46 content	245	2899	content
060309	11:56	702	JSUR46	246	1181	3
060309	11:56	702	JSseeUR78	247	500	0
060309	11:56	702	UR78 blender	248	3040	blender
060309	11:56	702	JSUR78	249	3029	5
060309	11:56	702	JSseeUR62	250	500	0
060309	11:56	702	UR62 chemistry	251	4838	chemistry
060309	11:56	702	JSUR62	252	2284	5
060309	11:56	702	JSseeUR75	253	500	0
060309	11:56	702	UR75 awe	254	4990	ax
060309	11:56	702	JSUR75	255	789	4
060309	11:56	702	JSseeLH46	256	500	0
060309	11:56	702	LH46 submarine	257	3785	submarine
060309	11:56	702	JSLH46	258	789	5
060309	11:56	702	JSseeLH17	259	500	0
060309	11:56	702	LH17 life	260	2048	life
060309	11:56	702	JSLH17	261	872	5
060309	11:56	702	JSseeUR21	262	500	0
060309	11:56	702	UR21 ore	263	2624	core
060309	11:56	702	JSUR21	264	1214	1
060309	11:56	702	JSseeUR17	265	500	0
060309	11:56	702	UR17 trance	266	4632	trance
060309	11:56	702	JSUR17	267	351	2
060309	11:56	702	JSseeUR98	268	500	0
060309	11:56	702	UR98 latch	269	3397	latch
060309	11:56	702	JSUR98	270	594	5
060309	11:56	702	JSseeHL36	271	500	0
060309	11:56	702	HL36 football	272	3470	football
060309	11:56	702	JSHL36	273	543	1
060309	11:56	702	JSseeHL32	274	500	0
060309	11:56	702	HL32 television	275	6758	television
060309	11:56	702	JSHL32	276	471	2
060309	11:56	702	JSseeLH19	277	500	0
060309	11:56	702	LH19 snob	278	5065	snob
060309	11:56	702	JSLH19	279	1909	3
060309	11:56	702	JSseeHL51	280	500	0
060309	11:56	702	HL51 color	281	3679	red
060309	11:56	702	JSHL51	282	1295	1
060309	11:56	702	JSseeHL50	283	500	0
060309	11:56	702	HL50 doctor	284	3765	doctor
060309	11:56	702	JSHL50	285	1649	2
060309	11:56	702	JSseeUR53	286	500	0
060309	11:56	702	UR53 hell	287	3016	hell
060309	11:56	702	JSUR53	288	861	2
060309	11:56	702	JSseeUR87	289	500	0
060309	11:56	702	UR87 duty	290	2502	duty
060309	11:56	702	JSUR87	291	489	2
060309	11:56	702	JSseeHL25	292	500	0
060309	11:56	702	HL25 cut	293	1586	cut
060309	11:56	702	JSHL25	294	1070	3
060309	11:56	702	JSseeHL14	295	500	0
060309	11:56	702	HL14 milk	296	2333	milk
060309	11:56	702	JSHL14	297	568	1
060309	11:56	702	JSseeHL10	298	500	0
060309	11:56	702	HL10 cow	299	1678	cow
060309	11:56	702	JSHL10	300	1013	2
060309	11:56	702	JSseeUR01	301	500	0
060309	11:56	702	UR01 file	302	6127	file
060309	11:56	702	JSUR01	303	780	1
060309	11:56	702	JSseeUR55	304	500	0
060309	11:56	702	UR55 bargain	305	6897	religion
060309	11:56	702	JSUR55	306	684	1
060309	11:56	702	JSseeUR07	307	500	0
060309	11:56	702	UR07 gathering	308	4764	gathering
060309	11:56	702	JSUR07	309	933	2
060309	11:56	702	JSseeUR74	310	500	0
060309	11:56	702	UR74 suitcase	311	3779	suitcase
060309	11:56	702	JSUR74	312	1127	2
060309	11:56	702	JSseeUR34	313	500	0
060309	11:56	702	UR34 charity	314	5588	charity
060309	11:56	702	JSUR34	315	1936	1
060309	11:56	702	JSseeLH54	316	500	0
060309	11:56	702	LH54 limit	317	2642	limit
060309	11:56	702	JSLH54	318	1216	2
060309	11:56	702	JSseeUR54	319	500	0
060309	11:56	702	UR54 steam	320	3577	stereo
060309	11:56	702	JSUR54	321	742	2
060309	11:56	702	JSseeUR24	322	500	0
060309	11:56	702	UR24 kid	323	2412	kid
060309	11:56	702	JSUR24	324	1315	2
060309	11:56	702	JAseePR26	1	500	0
060309	11:56	702	PR26 colonel	2	5644	colugue
060309	11:56	702	JAPR26	3	13406	1
060309	11:56	702	JAseePR24	4	500	0
060309	11:56	702	PR24 pest	5	3340	pest
060309	11:56	702	JAPR24	6	4227	1
060309	11:56	702	JAseePR08	7	500	0
060309	11:56	702	PR08 beef	8	4225	bee
060309	11:56	702	JAPR08	9	4905	1
060309	11:56	702	JAseePR05	10	500	0
060309	11:56	702	PR05 calf	11	3569	calf
060309	11:56	702	JAPR05	12	2662	6
060309	11:56	702	JAseePR14	13	500	0
060309	11:56	702	PR14 religion	14	7432	religion
060309	11:56	702	JAPR14	15	3732	1
060309	11:56	702	JAseePR19	16	500	0
060309	11:56	702	PR19 void	17	2039	vow
060309	11:56	702	JAPR19	18	1855	1
060309	11:56	702	JAseePR12	19	500	0
060309	11:56	702	PR12 royalty	20	3540	royalty
060309	11:56	702	JAPR12	21	1810	1
060309	11:56	702	JAseePR02	22	500	0
060309	11:56	702	PR02 wrinkle	23	2081	wink
060309	11:56	702	JAPR02	24	2223	2
060309	11:56	702	JAseePR10	25	500	0
060309	11:56	702	PR10 camel	26	5492	came
060309	11:56	702	JAPR10	27	6317	10
060309	11:56	702	JAseePR15	28	500	0
060309	11:56	702	PR15 depletion	29	5839	deordorant
060309	11:56	702	JAPR15	30	2713	3
060309	11:56	702	JAseePR20	31	500	0
060309	11:56	702	PR20 advertisement	32	6993	advertisement
060309	11:56	702	JAPR20	33	2600	2
060309	11:56	702	JAseePR29	34	500	0
060309	11:56	702	PR29 mermaid	35	3573	mermaid
060309	11:56	702	JAPR29	36	3810	5
060309	11:56	702	JAseePR16	37	500	0
060309	11:56	702	PR16 compulsion	38	5370	complaint
060309	11:56	702	JAPR16	39	1216	1
060309	11:56	702	JAseePR22	40	500	0
060309	11:56	702	PR22 ass	41	3554	ask
060309	11:56	702	JAPR22	42	2599	2
060309	11:56	702	JAseeUR43	1	500	0
060309	11:56	702	UR43 balloon	2	4783	balloon
060309	11:56	702	JAUR43	3	1431	1
060309	11:56	702	JAseeUR102	4	500	0
060309	11:56	702	UR102 velocity	5	5167	victory
060309	11:56	702	JAUR102	6	1310	1
060309	11:56	702	JAseeHL08	7	500	0
060309	11:56	702	HL08 math	8	10003	math
060309	11:56	702	JAHL08	9	5088	3
060309	11:56	702	JAseeLH13	10	500	0
060309	11:56	702	LH13 crease	11	3495	crease
060309	11:56	702	JALH13	12	2423	1
060309	11:56	702	JAseeLH08	13	500	0
060309	11:56	702	LH08 house	14	3428	house
060309	11:56	702	JALH08	15	2303	2
060309	11:56	702	JAseeUR71	16	500	0
060309	11:56	702	UR71 padding	17	5312	painting
060309	11:56	702	JAUR71	18	5985	1
060309	11:56	702	JAseeUR25	19	500	0
060309	11:56	702	UR25 partner	20	8539	pastry
060309	11:56	702	JAUR25	21	2199	2
060309	11:56	702	JAseeLH47	22	500	0
060309	11:56	702	LH47 detergent	23	4781	detergent
060309	11:56	702	JALH47	24	1885	1
060309	11:56	702	JAseeLH36	25	500	0
060309	11:56	702	LH36 gang	26	3482	gang
060309	11:56	702	JALH36	27	1066	1
060309	11:56	702	JAseeHL15	28	500	0
060309	11:56	702	HL15 bomb	29	4706	bomb
060309	11:56	702	JAHL15	30	2454	1
060309	11:56	702	JAseeUR84	31	500	0
060309	11:56	702	UR84 flag	32	3337	flag
060309	11:56	702	JAUR84	33	3016	1
060309	11:56	702	JAseeHL29	34	500	0
060309	11:56	702	HL29 ring	35	2707	ring
060309	11:56	702	JAHL29	36	2494	1
060309	11:56	702	JAseeLH29	37	500	0
060309	11:56	702	LH29 closet	38	4535	closet
060309	11:56	702	JALH29	39	1313	1
060309	11:56	702	JAseeLH52	40	500	0
060309	11:56	702	LH52 bureau	41	4638	bureau
060309	11:56	702	JALH52	42	7140	1
060309	11:56	702	JAseeLH48	43	500	0
060309	11:56	702	LH48 outcome	44	4083	outcome
060309	11:56	702	JALH48	45	2730	2
060309	11:56	702	JAseeUR29	46	500	0
060309	11:56	702	UR29 patrol	47	3945	patrol
060309	11:56	702	JAUR29	48	1494	1
060309	11:56	702	JAseeLH28	49	500	0
060309	11:56	702	LH28 vagrant	50	3275	vagrant
060309	11:56	702	JALH28	51	1741	1
060309	11:56	702	JAseeHL52	52	500	0
060309	11:56	702	HL52 sand	53	3871	sand
060309	11:56	702	JAHL52	54	1438	1
060309	11:56	702	JAseeHL44	55	500	0
060309	11:56	702	HL44 baseball	56	5062	baseball
060309	11:56	702	JAHL44	57	2826	2
060309	11:56	702	JAseeUR37	58	500	0
060309	11:56	702	UR37 cloth	59	2220	cloth
060309	11:56	702	JAUR37	60	1212	1
060309	11:56	702	JAseeUR81	61	500	0
060309	11:56	702	UR81 acid	62	2518	acid
060309	11:56	702	JAUR81	63	1849	1
060309	11:56	702	JAseeUR88	64	500	0
060309	11:56	702	UR88 circus	65	3502	circus
060309	11:56	702	JAUR88	66	1318	2
060309	11:56	702	JAseeLH34	67	500	0
060309	11:56	702	LH34 panel	68	3579	panel
060309	11:56	702	JALH34	69	448	1
060309	11:56	702	JAseeHL54	70	500	0
060309	11:56	702	HL54 indian	71	2682	indian
060309	11:56	702	JAHL54	72	2046	1
060309	11:56	702	JAseeUR48	73	500	0
060309	11:56	702	UR48 democracy	74	4347	democracy
060309	11:56	702	JAUR48	75	318	1
060309	11:56	702	JAseeUR40	76	500	0
060309	11:56	702	UR40 dancer	77	2206	dancer
060309	11:56	702	JAUR40	78	1183	1
060309	11:56	702	JAseeHL38	79	500	0
060309	11:56	702	HL38 boat	80	3962	boat
060309	11:56	702	JAHL38	81	2014	10
060309	11:56	702	JAseeLH18	82	500	0
060309	11:56	702	LH18 edge	83	2476	edge
060309	11:56	702	JALH18	84	1737	1
060309	11:56	702	JAseeUR89	85	500	0
060309	11:56	702	UR89 crow	86	3235	crow
060309	11:56	702	JAUR89	87	711	1
060309	11:56	702	JAseeUR18	88	500	0
060309	11:56	702	UR18 relief	89	5086	relief
060309	11:56	702	JAUR18	90	1921	1
060309	11:56	702	JAseeUR80	91	500	0
060309	11:56	702	UR80 antique	92	5067	antique
060309	11:56	702	JAUR80	93	18958	1
060309	11:56	702	JAseeUR15	94	500	0
060309	11:56	702	UR15 compass	95	3649	compass
060309	11:56	702	JAUR15	96	210	1
060309	11:56	702	JAseeUR08	97	500	0
060309	11:56	702	UR08 assistant	98	3735	assistant
060309	11:56	702	JAUR08	99	1885	1
060309	11:56	702	JAseeUR94	100	500	0
060309	11:56	702	UR94 bristle	101	3697	bristle
060309	11:56	702	JAUR94	102	1056	1
060309	11:56	702	JAseeUR61	103	500	0
060309	11:56	702	UR61 suicide	104	5000	suicide
060309	11:56	702	JAUR61	105	3647	1
060309	11:56	702	JAseeUR05	106	500	0
060309	11:56	702	UR05 lease	107	2733	lease
060309	11:56	702	JAUR05	108	967	1
060309	11:56	702	JAseeHL28	109	500	0
060309	11:56	702	HL28 bird	110	2395	bird
060309	11:56	702	JAHL28	111	1171	1
060309	11:56	702	JAseeUR73	112	500	0
060309	11:56	702	UR73 kite	113	3150	kite
060309	11:56	702	JAUR73	114	525	1
060309	11:56	702	JAseeUR79	115	500	0
060309	11:56	702	UR79 beetle	116	3917	beet
060309	11:56	702	JAUR79	117	322	1
060309	11:56	702	JAseeUR31	118	500	0
060309	11:56	702	UR31 diameter	119	3538	diameter
060309	11:56	702	JAUR31	120	1601	1
060309	11:56	702	JAseeUR26	121	500	0
060309	11:56	702	UR26 eternity	122	3850	eternity
060309	11:56	702	JAUR26	123	930	1
060309	11:56	702	JAseeLH21	124	500	0
060309	11:56	702	LH21 monument	125	3776	monument
060309	11:56	702	JALH21	126	1804	1
060309	11:56	702	JAseeHL48	127	500	0
060309	11:56	702	HL48 airplane	128	5123	airplane
060309	11:56	702	JAHL48	129	532	3
060309	11:56	702	JAseeLH10	130	500	0
060309	11:56	702	LH10 care	131	2332	care
060309	11:56	702	JALH10	132	1503	6
060309	11:56	702	JAseeLH31	133	500	0
060309	11:56	702	LH31 self	134	5339	self
060309	11:56	702	JALH31	135	267	1
060309	11:56	702	JAseeUR38	136	500	0
060309	11:56	702	UR38 energy	137	4117	enemy
060309	11:56	702	JAUR38	138	330	1
060309	11:56	702	JAseeUR86	139	500	0
060309	11:56	702	UR86 boulevard	140	3538	boulevard
060309	11:56	702	JAUR86	141	1545	1
060309	11:56	702	JAseeUR90	142	500	0
060309	11:56	702	UR90 sailing	143	2556	sailing
060309	11:56	702	JAUR90	144	678	1
060309	11:56	702	JAseeHL30	145	500	0
060309	11:56	702	HL30 air	146	1406	air
060309	11:56	702	JAHL30	147	1633	1
060309	11:56	702	JAseeUR57	148	500	0
060309	11:56	702	UR57 benefit	149	4224	berry
060309	11:56	702	JAUR57	150	801	1
060309	11:56	702	JAseeLH12	151	500	0
060309	11:56	702	LH12 addition	152	3556	addiction
060309	11:56	702	JALH12	153	745	1
060309	11:56	702	JAseeHL04	154	500	0
060309	11:56	702	HL04 beer	155	3271	beer
060309	11:56	702	JAHL04	156	369	1
060309	11:56	702	JAseeUR11	157	500	0
060309	11:56	702	UR11 foundation	158	7455	fountain
060309	11:56	702	JAUR11	159	787	1
060309	11:56	702	JAseeLH33	160	500	0
060309	11:56	702	LH33 fable	161	2638	fable
060309	11:56	702	JALH33	162	748	3
060309	11:56	702	JAseeHL11	163	500	0
060309	11:56	702	HL11 rock	164	3346	rock
060309	11:56	702	JAHL11	165	585	10
060309	11:56	702	JAseeLH06	166	500	0
060309	11:56	702	LH06 element	167	3797	element
060309	11:56	702	JALH06	168	304	2
060309	11:56	702	JAseeHL37	169	500	0
060309	11:56	702	HL37 thread	170	3425	thread
060309	11:56	702	JAHL37	171	1860	5
060309	11:56	702	JAseeLH44	172	500	0
060309	11:56	702	LH44 vessel	173	3097	vessel
060309	11:56	702	JALH44	174	282	1
060309	11:56	702	JAseeLH39	175	500	0
060309	11:56	702	LH39 reward	176	3156	reward
060309	11:56	702	JALH39	177	300	1
060309	11:56	702	JAseeLH49	178	500	0
060309	11:56	702	LH49 kindness	179	4444	kindness
060309	11:56	702	JALH49	180	651	1
060309	11:56	702	JAseeUR39	181	500	0
060309	11:56	702	UR39 faith	182	2749	faith
060309	11:56	702	JAUR39	183	413	2
060309	11:56	702	JAseeUR33	184	500	0
060309	11:56	702	UR33 horror	185	3138	horror
060309	11:56	702	JAUR33	186	1850	2
060309	11:56	702	JAseeUR02	187	500	0
060309	11:56	702	UR02 comma	188	2967	comma
060309	11:56	702	JAUR02	189	2071	1
060309	11:56	702	JAseeUR93	190	500	0
060309	11:56	702	UR93 catcher	191	3291	catcher
060309	11:56	702	JAUR93	192	1284	1
060309	11:56	702	JAseeHL19	193	500	0
060309	11:56	702	HL19 car	194	1787	car
060309	11:56	702	JAHL19	195	750	1
060309	11:56	702	JAseeUR49	196	500	0
060309	11:56	702	UR49 casket	197	2972	casket
060309	11:56	702	JAUR49	198	611	1
060309	11:56	702	JAseeHL35	199	500	0
060309	11:56	702	HL35 cake	200	1807	cake
060309	11:56	702	JAHL35	201	1144	2
060309	11:56	702	JAseeUR44	202	500	0
060309	11:56	702	UR44 rot	203	6853	rock
060309	11:56	702	JAUR44	204	2066	2
060309	11:56	702	JAseeUR91	205	500	0
060309	11:56	702	UR91 anteater	206	2311	ant
060309	11:56	702	JAUR91	207	2682	10
060309	11:56	702	JAseeHL46	208	500	0
060309	11:56	702	HL46 butter	209	3515	butter
060309	11:56	702	JAHL46	210	331	5
060309	11:56	702	JAseeUR09	211	500	0
060309	11:56	702	UR09 education	212	3219	education
060309	11:56	702	JAUR09	213	823	1
060309	11:56	702	JAseeUR83	214	500	0
060309	11:56	702	UR83 lesson	215	2601	lesson
060309	11:56	702	JAUR83	216	3345	2
060309	11:56	702	JAseeHL18	217	500	0
060309	11:56	702	HL18 paper	218	4813	paper
060309	11:56	702	JAHL18	219	2699	10
060309	11:56	702	JAseeLH16	220	500	0
060309	11:56	702	LH16 power	221	3324	power
060309	11:56	702	JALH16	222	2028	2
060309	11:56	702	JAseeHL06	223	500	0
060309	11:56	702	HL06 egg	224	4025	ego
060309	11:56	702	JAHL06	225	938	1
060309	11:56	702	JAseeHL20	226	500	0
060309	11:56	702	HL20 wine	227	1912	wine
060309	11:56	702	JAHL20	228	2293	1
060309	11:56	702	JAseeHL26	229	500	0
060309	11:56	702	HL26 light	230	3239	light
060309	11:56	702	JAHL26	231	2138	1
060309	11:56	702	JAseeLH42	232	500	0
060309	11:56	702	LH42 thought	233	3724	thought
060309	11:56	702	JALH42	234	2810	3
060309	11:56	702	JAseeUR41	235	500	0
060309	11:56	702	UR41 chime	236	3869	chime
060309	11:56	702	JAUR41	237	2053	1
060309	11:56	702	JAseePR18	238	500	0
060309	11:56	702	PR18 clorox	239	3130	clorox
060309	11:56	702	JAPR18	240	674	1
060309	11:56	702	JAseeLH35	241	500	0
060309	11:56	702	LH35 shelter	242	3019	shelter
060309	11:56	702	JALH35	243	2416	8
060309	11:56	702	JAseeUR16	244	500	0
060309	11:56	702	UR16 century	245	3197	century
060309	11:56	702	JAUR16	246	866	1
060309	11:56	702	JAseeUR108	247	500	0
060309	11:56	702	UR108 shield	248	2578	shield
060309	11:56	702	JAUR108	249	891	1
060309	11:56	702	JAseeHL12	250	500	0
060309	11:56	702	HL12 space	251	1922	space
060309	11:56	702	JAHL12	252	2103	7
060309	11:56	702	JAseeUR23	253	500	0
060309	11:56	702	UR23 abundance	254	4154	absence
060309	11:56	702	JAUR23	255	2117	1
060309	11:56	702	JAseeUR104	256	500	0
060309	11:56	702	UR104 aardvark	257	8415	awkward
060309	11:56	702	JAUR104	258	696	1
060309	11:56	702	JAseeUR56	259	500	0
060309	11:56	702	UR56 antler	260	3848	anxiety
060309	11:56	702	JAUR56	261	921	1
060309	11:56	702	JAseeHL16	262	500	0
060309	11:56	702	HL16 broom	263	2359	broom
060309	11:56	702	JAHL16	264	1344	2
060309	11:56	702	JAseeHL40	265	500	0
060309	11:56	702	HL40 temperature	266	3852	temperature
060309	11:56	702	JAHL40	267	1284	6
060309	11:56	702	JAseeUR101	268	500	0
060309	11:56	702	UR101 beard	269	2051	bread
060309	11:56	702	JAUR101	270	1130	1
060309	11:56	702	JAseeLH45	271	500	0
060309	11:56	702	LH45 intellect	272	4039	intellect
060309	11:56	702	JALH45	273	1928	2
060309	11:56	702	JAseeUR92	274	500	0
060309	11:56	702	UR92 dart	275	2834	dart
060309	11:56	702	JAUR92	276	1471	1
060309	11:56	702	JAseeUR19	277	500	0
060309	11:56	702	UR19 bison	278	3253	bishop
060309	11:56	702	JAUR19	279	895	1
060309	11:56	702	JAseeUR99	280	500	0
060309	11:56	702	UR99 branch	281	5055	branch
060309	11:56	702	JAUR99	282	1387	1
060309	11:56	702	JAseeUR10	283	500	0
060309	11:56	702	UR10 tribe	284	2204	tribe
060309	11:56	702	JAUR10	285	1629	1
060309	11:56	702	JAseeUR72	286	500	0
060309	11:56	702	UR72 band	287	3700	brand
060309	11:56	702	JAUR72	288	9555	1
060309	11:56	702	JAseeUR100	289	500	0
060309	11:56	702	UR100 comb	290	4520	comb
060309	11:56	702	JAUR100	291	539	1
060309	11:56	702	JAseeLH26	292	500	0
060309	11:56	702	LH26 center	293	2050	center
060309	11:56	702	JALH26	294	1025	1
060309	11:56	702	JAseeUR03	295	500	0
060309	11:56	702	UR03 vehicle	296	4963	vehicle
060309	11:56	702	JAUR03	297	211	9
060309	11:56	702	JAseeHL22	298	500	0
060309	11:56	702	HL22 problem	299	2848	problem
060309	11:56	702	JAHL22	300	973	1
060309	11:56	702	JAseeLH15	301	500	0
060309	11:56	702	LH15 blessing	302	4200	blessing
060309	11:56	702	JALH15	303	546	1
060309	11:56	702	JAseeHL27	304	500	0
060309	11:56	702	HL27 rain	305	3672	brain
060309	11:56	702	JAHL27	306	817	1
060309	11:56	702	JAseeHL02	307	500	0
060309	11:56	702	HL02 flower	308	5164	flower
060309	11:56	702	JAHL02	309	1923	2
060309	11:56	702	JAseeLH41	310	500	0
060309	11:56	702	LH41 girl	311	2517	girl
060309	11:56	702	JALH41	312	1232	1
060309	11:56	702	JAseeHL13	313	500	0
060309	11:56	702	HL13 map	314	3649	map
060309	11:56	702	JAHL13	315	2378	6
060309	11:56	702	JAseeUR97	316	500	0
060309	11:56	702	UR97 banner	317	1921	banner
060309	11:56	702	JAUR97	318	1286	2
060309	11:56	702	JAseeLH40	319	500	0
060309	11:56	702	LH40 field	320	2292	field
060309	11:56	702	JALH40	321	920	1
060309	11:56	702	JAseeUR51	322	500	0
060309	11:56	702	UR51 cabbage	323	3582	cabbage
060309	11:56	702	JAUR51	324	1418	1
060309	11:56	702	JAseeUR12	325	500	0
060309	11:56	702	UR12 unicorn	326	3371	unicorn
060309	11:56	702	JAUR12	327	1153	1