date	time	subject	trialcode	trialnum	latency	response
061609	12:45	718	JAseePR17	1	500	0
061609	12:45	718	PR17 emerald	2	8772	elm
061609	12:45	718	JAPR17	3	11517	1
061609	12:45	718	JAseePR27	4	500	0
061609	12:45	718	PR27 wheat	5	13663	wife husband
061609	12:45	718	JAPR27	6	23463	5
061609	12:45	718	JAseePR07	7	500	0
061609	12:45	718	PR07 bog	8	25265	blues
061609	12:45	718	JAPR07	9	5704	1
061609	12:45	718	JAseePR23	10	500	0
061609	12:45	718	PR23 companion	11	5725	companion
061609	12:45	718	JAPR23	12	9782	4
061609	12:45	718	JAseePR06	13	500	0
061609	12:45	718	PR06 beast	14	4157	beast
061609	12:45	718	JAPR06	15	7851	6
061609	12:45	718	JAseePR09	16	500	0
061609	12:45	718	PR09 album	17	10260	bell
061609	12:45	718	JAPR09	18	1506	1
061609	12:45	718	JAseePR21	19	500	0
061609	12:45	718	PR21 innocence	20	9014	innocent
061609	12:45	718	JAPR21	21	2420	1
061609	12:45	718	JAseePR01	22	500	0
061609	12:45	718	PR01 cash	23	8284	tree
061609	12:45	718	JAPR01	24	3160	1
061609	12:45	718	JAseePR11	25	500	0
061609	12:45	718	PR11 ounce	26	3376	ounce
061609	12:45	718	JAPR11	27	2496	2
061609	12:45	718	JAseePR25	28	500	0
061609	12:45	718	PR25 saliva	29	3562	saliva
061609	12:45	718	JAPR25	30	3469	3
061609	12:45	718	JAseePR30	31	500	0
061609	12:45	718	PR30 maiden	32	6160	0
061609	12:45	718	JAPR30	33	4312	1
061609	12:45	718	JAseePR03	34	500	0
061609	12:45	718	PR03 acre	35	4249	acre
061609	12:45	718	JAPR03	36	2999	1
061609	12:45	718	JAseePR13	37	500	0
061609	12:45	718	PR13 ambition	38	4263	ambition
061609	12:45	718	JAPR13	39	2747	6
061609	12:45	718	JAseePR04	40	500	0
061609	12:45	718	PR04 diaper	41	3289	diaper
061609	12:45	718	JAPR04	42	2496	2
061609	12:45	718	JAseeUR53	1	500	0
061609	12:45	718	UR53 hell	2	2830	hell
061609	12:45	718	JAUR53	3	5032	4
061609	12:45	718	JAseeUR13	4	500	0
061609	12:45	718	UR13 almanac	5	3601	almanac
061609	12:45	718	JAUR13	6	1175	3
061609	12:45	718	JAseeHL07	7	500	0
061609	12:45	718	HL07 king	8	3299	king
061609	12:45	718	JAHL07	9	3153	3
061609	12:45	718	JAseeLH05	10	500	0
061609	12:45	718	LH05 chain	11	3207	chain
061609	12:45	718	JALH05	12	1878	3
061609	12:45	718	JAseeLH02	13	500	0
061609	12:45	718	LH02 harm	14	3527	arm
061609	12:45	718	JALH02	15	1220	3
061609	12:45	718	JAseeUR64	16	500	0
061609	12:45	718	UR64 fist	17	3098	first
061609	12:45	718	JAUR64	18	2753	4
061609	12:45	718	JAseeUR32	19	500	0
061609	12:45	718	UR32 navigator	20	4430	navigator
061609	12:45	718	JAUR32	21	900	4
061609	12:45	718	JAseeLH50	22	500	0
061609	12:45	718	LH50 measure	23	4739	measure
061609	12:45	718	JALH50	24	2088	6
061609	12:45	718	JAseeLH27	25	500	0
061609	12:45	718	LH27 condition	26	3263	condition
061609	12:45	718	JALH27	27	1357	6
061609	12:45	718	JAseeHL17	28	500	0
061609	12:45	718	HL17 soap	29	2639	soap
061609	12:45	718	JAHL17	30	2586	6
061609	12:45	718	JAseeUR74	31	500	0
061609	12:45	718	UR74 suitcase	32	4829	suitcase
061609	12:45	718	JAUR74	33	1120	4
061609	12:45	718	JAseeHL36	34	500	0
061609	12:45	718	HL36 football	35	3140	football
061609	12:45	718	JAHL36	36	2065	5
061609	12:45	718	JAseeLH20	37	500	0
061609	12:45	718	LH20 violation	38	3474	violation
061609	12:45	718	JALH20	39	2112	6
061609	12:45	718	JAseeLH54	40	500	0
061609	12:45	718	LH54 limit	41	3610	limit
061609	12:45	718	JALH54	42	1042	5
061609	12:45	718	JAseeLH51	43	500	0
061609	12:45	718	LH51 exit	44	4605	exit
061609	12:45	718	JALH51	45	753	2
061609	12:45	718	JAseeUR35	46	500	0
061609	12:45	718	UR35 cause	47	5335	boat
061609	12:45	718	JAUR35	48	1124	1
061609	12:45	718	JAseeLH19	49	500	0
061609	12:45	718	LH19 snob	50	4441	0
061609	12:45	718	JALH19	51	2273	1
061609	12:45	718	JAseeHL51	52	500	0
061609	12:45	718	HL51 color	53	2832	color
061609	12:45	718	JAHL51	54	1766	5
061609	12:45	718	JAseeHL47	55	500	0
061609	12:45	718	HL47 horse	56	3434	horse
061609	12:45	718	JAHL47	57	1936	6
061609	12:45	718	JAseeUR45	58	500	0
061609	12:45	718	UR45 bridge	59	5363	bridge
061609	12:45	718	JAUR45	60	926	5
061609	12:45	718	JAseeUR69	61	500	0
061609	12:45	718	UR69 flashlight	62	4081	flashlight
061609	12:45	718	JAUR69	63	1428	2
061609	12:45	718	JAseeUR76	64	500	0
061609	12:45	718	UR76 dignity	65	6685	dignity
061609	12:45	718	JAUR76	66	1601	4
061609	12:45	718	JAseeLH24	67	500	0
061609	12:45	718	LH24 feeling	68	4068	feeling
061609	12:45	718	JALH24	69	1009	2
061609	12:45	718	JAseeHL53	70	500	0
061609	12:45	718	HL53 fish	71	3931	fish
061609	12:45	718	JAHL53	72	887	2
061609	12:45	718	JAseeUR55	73	500	0
061609	12:45	718	UR55 bargain	74	3866	bargain
061609	12:45	718	JAUR55	75	2651	1
061609	12:45	718	JAseeUR50	76	500	0
061609	12:45	718	UR50 crane	77	4436	crane
061609	12:45	718	JAUR50	78	2408	1
061609	12:45	718	JAseeHL43	79	500	0
061609	12:45	718	HL43 money	80	4717	0
061609	12:45	718	JAHL43	81	3425	1
061609	12:45	718	JAseeLH11	82	500	0
061609	12:45	718	LH11 cancer	83	2812	cancer
061609	12:45	718	JALH11	84	2886	1
061609	12:45	718	JAseeUR77	85	500	0
061609	12:45	718	UR77 uncle	86	3238	uncle
061609	12:45	718	JAUR77	87	1189	3
061609	12:45	718	JAseeUR27	88	500	0
061609	12:45	718	UR27 consequence	89	4215	consequence
061609	12:45	718	JAUR27	90	732	3
061609	12:45	718	JAseeUR68	91	500	0
061609	12:45	718	UR68 fatigue	92	4156	0
061609	12:45	718	JAUR68	93	3395	2
061609	12:45	718	JAseeUR22	94	500	0
061609	12:45	718	UR22 thesaurus	95	4353	measure
061609	12:45	718	JAUR22	96	3123	3
061609	12:45	718	JAseeUR07	97	500	0
061609	12:45	718	UR07 gathering	98	3668	gathering
061609	12:45	718	JAUR07	99	4158	2
061609	12:45	718	JAseeUR95	100	500	0
061609	12:45	718	UR95 fool	101	2389	foot
061609	12:45	718	JAUR95	102	1791	1
061609	12:45	718	JAseeUR63	103	500	0
061609	12:45	718	UR63 alley	104	3032	allergy
061609	12:45	718	JAUR63	105	2275	3
061609	12:45	718	JAseeUR06	106	500	0
061609	12:45	718	UR06 cello	107	5298	cellular
061609	12:45	718	JAUR06	108	6171	2
061609	12:45	718	JAseeHL34	109	500	0
061609	12:45	718	HL34 hunger	110	3601	hunger
061609	12:45	718	JAHL34	111	959	10
061609	12:45	718	JAseeUR66	112	500	0
061609	12:45	718	UR66 chief	113	2593	chief
061609	12:45	718	JAUR66	114	2725	9
061609	12:45	718	JAseeUR67	115	500	0
061609	12:45	718	UR67 producer	116	2822	producer
061609	12:45	718	JAUR67	117	1017	7
061609	12:45	718	JAseeUR36	118	500	0
061609	12:45	718	UR36 denim	119	5058	denim
061609	12:45	718	JAUR36	120	1022	4
061609	12:45	718	JAseeUR34	121	500	0
061609	12:45	718	UR34 charity	122	3059	charity
061609	12:45	718	JAUR34	123	700	10
061609	12:45	718	JAseeLH14	124	500	0
061609	12:45	718	LH14 note	125	5381	notetaker
061609	12:45	718	JALH14	126	3099	1
061609	12:45	718	JAseeHL50	127	500	0
061609	12:45	718	HL50 doctor	128	2916	doctor
061609	12:45	718	JAHL50	129	1292	4
061609	12:45	718	JAseeLH03	130	500	0
061609	12:45	718	LH03 yard	131	2906	yard
061609	12:45	718	JALH03	132	1867	8
061609	12:45	718	JAseeLH22	133	500	0
061609	12:45	718	LH22 crowd	134	2653	crowd
061609	12:45	718	JALH22	135	1174	10
061609	12:45	718	JAseeUR46	136	500	0
061609	12:45	718	UR46 content	137	2819	content
061609	12:45	718	JAUR46	138	866	6
061609	12:45	718	JAseeUR75	139	500	0
061609	12:45	718	UR75 awe	140	6078	also
061609	12:45	718	JAUR75	141	3254	2
061609	12:45	718	JAseeUR78	142	500	0
061609	12:45	718	UR78 blender	143	3778	blender
061609	12:45	718	JAUR78	144	930	7
061609	12:45	718	JAseeHL39	145	500	0
061609	12:45	718	HL39 book	146	2222	book
061609	12:45	718	JAHL39	147	824	6
061609	12:45	718	JAseeUR62	148	500	0
061609	12:45	718	UR62 chemistry	149	3292	chemistry
061609	12:45	718	JAUR62	150	1570	6
061609	12:45	718	JAseeLH04	151	500	0
061609	12:45	718	LH04 grade	152	3517	grade
061609	12:45	718	JALH04	153	4032	8
061609	12:45	718	JAseeHL03	154	500	0
061609	12:45	718	HL03 cigarette	155	11018	cigarette
061609	12:45	718	JAHL03	156	1930	9
061609	12:45	718	JAseeUR20	157	500	0
061609	12:45	718	UR20 climax	158	3138	climax
061609	12:45	718	JAUR20	159	2801	9
061609	12:45	718	JAseeLH23	160	500	0
061609	12:45	718	LH23 possibility	161	3837	possibility
061609	12:45	718	JALH23	162	885	10
061609	12:45	718	JAseeHL09	163	500	0
061609	12:45	718	HL09 chalk	164	3193	chalk
061609	12:45	718	JAHL09	165	982	9
061609	12:45	718	JAseeLH01	166	500	0
061609	12:45	718	LH01 brain	167	3333	brain
061609	12:45	718	JALH01	168	2149	9
061609	12:45	718	JAseeHL42	169	500	0
061609	12:45	718	HL42 pie	170	3062	pile
061609	12:45	718	JAHL42	171	984	3
061609	12:45	718	JAseeLH43	172	500	0
061609	12:45	718	LH43 noise	173	2791	noise
061609	12:45	718	JALH43	174	4124	9
061609	12:45	718	JAseeLH30	175	500	0
061609	12:45	718	LH30 assignment	176	5782	assignment
061609	12:45	718	JALH30	177	3121	8
061609	12:45	718	JAseeLH53	178	500	0
061609	12:45	718	LH53 core	179	4480	core
061609	12:45	718	JALH53	180	974	1
061609	12:45	718	JAseeUR47	181	500	0
061609	12:45	718	UR47 chimpanzee	182	11282	chimpanzee
061609	12:45	718	JAUR47	183	2321	10
061609	12:45	718	JAseeUR42	184	500	0
061609	12:45	718	UR42 sergeant	185	2695	sergeant
061609	12:45	718	JAUR42	186	2414	7
061609	12:45	718	JAseeUR01	187	500	0
061609	12:45	718	UR01 file	188	2543	file
061609	12:45	718	JAUR01	189	1515	5
061609	12:45	718	JAseeUR87	190	500	0
061609	12:45	718	UR87 duty	191	2620	duty
061609	12:45	718	JAUR87	192	1607	6
061609	12:45	718	JAseeHL24	193	500	0
061609	12:45	718	HL24 eye	194	2814	eye
061609	12:45	718	JAHL24	195	1626	2
061609	12:45	718	JAseeUR58	196	500	0
061609	12:45	718	UR58 answer	197	2856	answer
061609	12:45	718	JAUR58	198	730	6
061609	12:45	718	JAseeHL41	199	500	0
061609	12:45	718	HL41 hand	200	2725	hand
061609	12:45	718	JAHL41	201	752	3
061609	12:45	718	JAseeUR54	202	500	0
061609	12:45	718	UR54 steam	203	3866	stream
061609	12:45	718	JAUR54	204	3227	6
061609	12:45	718	JAseeUR82	205	500	0
061609	12:45	718	UR82 campus	206	2760	campus
061609	12:45	718	JAUR82	207	710	2
061609	12:45	718	JAseeHL49	208	500	0
061609	12:45	718	HL49 spice	209	2451	spice
061609	12:45	718	JAHL49	210	875	3
061609	12:45	718	JAseeUR103	211	500	0
061609	12:45	718	UR103 hula	212	8932	hurray
061609	12:45	718	JAUR103	213	2418	1
061609	12:45	718	JAseeUR70	214	500	0
061609	12:45	718	UR70 pajamas	215	5261	panamas
061609	12:45	718	JAUR70	216	1077	2
061609	12:45	718	JAseeHL23	217	500	0
061609	12:45	718	HL23 baby	218	2655	baby
061609	12:45	718	JAHL23	219	3708	8
061609	12:45	718	JAseeLH09	220	500	0
061609	12:45	718	LH09 piece	221	3538	piece
061609	12:45	718	JALH09	222	607	1
061609	12:45	718	JAseeHL05	223	500	0
061609	12:45	718	HL05 mountain	224	3526	mountain
061609	12:45	718	JAHL05	225	1449	6
061609	12:45	718	JAseeHL25	226	500	0
061609	12:45	718	HL25 cut	227	2138	cut
061609	12:45	718	JAHL25	228	2020	6
061609	12:45	718	JAseeHL32	229	500	0
061609	12:45	718	HL32 television	230	3654	television
061609	12:45	718	JAHL32	231	1637	9
061609	12:45	718	JAseeLH38	232	500	0
061609	12:45	718	LH38 paint	233	2560	paint
061609	12:45	718	JALH38	234	2701	7
061609	12:45	718	JAseeUR52	235	500	0
061609	12:45	718	UR52 knight	236	2461	knife
061609	12:45	718	JAUR52	237	1150	8
061609	12:45	718	JAseePR28	238	500	0
061609	12:45	718	PR28 challenge	239	4051	challenge
061609	12:45	718	JAPR28	240	4815	9
061609	12:45	718	JAseeLH25	241	500	0
061609	12:45	718	LH25 track	242	2442	track
061609	12:45	718	JALH25	243	815	2
061609	12:45	718	JAseeUR24	244	500	0
061609	12:45	718	UR24 kid	245	2407	kid
061609	12:45	718	JAUR24	246	740	2
061609	12:45	718	JAseeUR17	247	500	0
061609	12:45	718	UR17 trance	248	4851	bench
061609	12:45	718	JAUR17	249	1149	1
061609	12:45	718	JAseeHL10	250	500	0
061609	12:45	718	HL10 cow	251	2232	cow
061609	12:45	718	JAHL10	252	1624	7
061609	12:45	718	JAseeUR30	253	500	0
061609	12:45	718	UR30 lover	254	3724	lover
061609	12:45	718	JAUR30	255	2352	5
061609	12:45	718	JAseeUR14	256	500	0
061609	12:45	718	UR14 fudge	257	4254	fugue
061609	12:45	718	JAUR14	258	1491	6
061609	12:45	718	JAseeUR60	259	500	0
061609	12:45	718	UR60 plaque	260	2824	plaque
061609	12:45	718	JAUR60	261	648	1
061609	12:45	718	JAseeHL21	262	500	0
061609	12:45	718	HL21 empire	263	2672	empire
061609	12:45	718	JAHL21	264	2639	10
061609	12:45	718	JAseeHL45	265	500	0
061609	12:45	718	HL45 words	266	2375	words
061609	12:45	718	JAHL45	267	2191	10
061609	12:45	718	JAseeUR107	268	500	0
061609	12:45	718	UR107 cocaine	269	3440	cocaine
061609	12:45	718	JAUR107	270	1062	6
061609	12:45	718	JAseeLH46	271	500	0
061609	12:45	718	LH46 submarine	272	2916	0
061609	12:45	718	JALH46	273	3862	1
061609	12:45	718	JAseeUR85	274	500	0
061609	12:45	718	UR85 stroke	275	2657	stroke
061609	12:45	718	JAUR85	276	848	3
061609	12:45	718	JAseeUR28	277	500	0
061609	12:45	718	UR28 bang	278	3699	broke
061609	12:45	718	JAUR28	279	1029	1
061609	12:45	718	JAseeUR98	280	500	0
061609	12:45	718	UR98 latch	281	3062	launch
061609	12:45	718	JAUR98	282	673	2
061609	12:45	718	JAseeUR105	283	500	0
061609	12:45	718	UR105 curtain	284	4127	curtain
061609	12:45	718	JAUR105	285	1768	5
061609	12:45	718	JAseeUR65	286	500	0
061609	12:45	718	UR65 checkers	287	3852	checkers
061609	12:45	718	JAUR65	288	998	2
061609	12:45	718	JAseeUR106	289	500	0
061609	12:45	718	UR106 eagle	290	3403	eagle
061609	12:45	718	JAUR106	291	1200	1
061609	12:45	718	JAseeLH17	292	500	0
061609	12:45	718	LH17 life	293	2183	life
061609	12:45	718	JALH17	294	792	2
061609	12:45	718	JAseeUR04	295	500	0
061609	12:45	718	UR04 marsh	296	4387	marsh
061609	12:45	718	JAUR04	297	1791	1
061609	12:45	718	JAseeHL31	298	500	0
061609	12:45	718	HL31 war	299	2463	wars
061609	12:45	718	JAHL31	300	2229	9
061609	12:45	718	JAseeLH07	301	500	0
061609	12:45	718	LH07 rear	302	4747	enter
061609	12:45	718	JALH07	303	625	2
061609	12:45	718	JAseeHL33	304	500	0
061609	12:45	718	HL33 joke	305	2434	joke
061609	12:45	718	JAHL33	306	1319	6
061609	12:45	718	JAseeHL01	307	500	0
061609	12:45	718	HL01 elephant	308	3029	elephant
061609	12:45	718	JAHL01	309	3665	9
061609	12:45	718	JAseeLH37	310	500	0
061609	12:45	718	LH37 pad	311	6273	head
061609	12:45	718	JALH37	312	1029	5
061609	12:45	718	JAseeHL14	313	500	0
061609	12:45	718	HL14 milk	314	2273	milk
061609	12:45	718	JAHL14	315	1760	9
061609	12:45	718	JAseeUR96	316	500	0
061609	12:45	718	UR96 dessert	317	3297	desert
061609	12:45	718	JAUR96	318	962	6
061609	12:45	718	JAseeLH32	319	500	0
061609	12:45	718	LH32 capacity	320	3239	capacity
061609	12:45	718	JALH32	321	733	6
061609	12:45	718	JAseeUR59	322	500	0
061609	12:45	718	UR59 copper	323	4892	copier
061609	12:45	718	JAUR59	324	1249	3
061609	12:45	718	JAseeUR21	325	500	0
061609	12:45	718	UR21 ore	326	4372	ypur
061609	12:45	718	JAUR21	327	1142	1
061609	12:45	718	JSseePR26	1	500	0
061609	12:45	718	PR26 colonel	2	5625	colonel
061609	12:45	718	JSPR26	3	9689	5
061609	12:45	718	JSseePR24	4	500	0
061609	12:45	718	PR24 pest	5	2858	past
061609	12:45	718	JSPR24	6	718	5
061609	12:45	718	JSseePR08	7	500	0
061609	12:45	718	PR08 beef	8	2982	beef
061609	12:45	718	JSPR08	9	876	3
061609	12:45	718	JSseePR05	10	500	0
061609	12:45	718	PR05 calf	11	2471	calf
061609	12:45	718	JSPR05	12	1365	2
061609	12:45	718	JSseePR14	13	500	0
061609	12:45	718	PR14 religion	14	3077	religion
061609	12:45	718	JSPR14	15	853	5
061609	12:45	718	JSseePR19	16	500	0
061609	12:45	718	PR19 void	17	2422	void
061609	12:45	718	JSPR19	18	1714	5
061609	12:45	718	JSseePR12	19	500	0
061609	12:45	718	PR12 royalty	20	2753	royalty
061609	12:45	718	JSPR12	21	1237	8
061609	12:45	718	JSseePR02	22	500	0
061609	12:45	718	PR02 wrinkle	23	2973	wrinkle
061609	12:45	718	JSPR02	24	1036	3
061609	12:45	718	JSseePR10	25	500	0
061609	12:45	718	PR10 camel	26	2763	camel
061609	12:45	718	JSPR10	27	1766	2
061609	12:45	718	JSseePR15	28	500	0
061609	12:45	718	PR15 depletion	29	3081	deletion
061609	12:45	718	JSPR15	30	2469	5
061609	12:45	718	JSseePR20	31	500	0
061609	12:45	718	PR20 advertisement	32	10794	advertisement
061609	12:45	718	JSPR20	33	2356	3
061609	12:45	718	JSseePR29	34	500	0
061609	12:45	718	PR29 mermaid	35	4312	mermaid
061609	12:45	718	JSPR29	36	921	3
061609	12:45	718	JSseePR16	37	500	0
061609	12:45	718	PR16 compulsion	38	4962	compulsion
061609	12:45	718	JSPR16	39	1546	2
061609	12:45	718	JSseePR22	40	500	0
061609	12:45	718	PR22 ass	41	3886	brick
061609	12:45	718	JSPR22	42	539	5
061609	12:45	718	JSseePR18	43	500	0
061609	12:45	718	PR18 clorox	44	2594	color
061609	12:45	718	JSPR18	45	380	5
061609	12:45	718	JSseeUR33	1	500	0
061609	12:45	718	UR33 horror	2	2654	horror
061609	12:45	718	JSUR33	3	912	8
061609	12:45	718	JSseeUR41	4	500	0
061609	12:45	718	UR41 chime	5	2915	chime
061609	12:45	718	JSUR41	6	726	2
061609	12:45	718	JSseeLH06	7	500	0
061609	12:45	718	LH06 element	8	3074	element
061609	12:45	718	JSLH06	9	1631	8
061609	12:45	718	JSseeHL40	10	500	0
061609	12:45	718	HL40 temperature	11	3370	temperature
061609	12:45	718	JSHL40	12	4597	9
061609	12:45	718	JSseeLH10	13	500	0
061609	12:45	718	LH10 care	14	2153	care
061609	12:45	718	JSLH10	15	1184	5
061609	12:45	718	JSseeHL16	16	500	0
061609	12:45	718	HL16 broom	17	2973	broom
061609	12:45	718	JSHL16	18	857	8
061609	12:45	718	JSseeLH42	19	500	0
061609	12:45	718	LH42 thought	20	2682	thought
061609	12:45	718	JSLH42	21	1617	9
061609	12:45	718	JSseeLH44	22	500	0
061609	12:45	718	LH44 vessel	23	2484	vessel
061609	12:45	718	JSLH44	24	808	9
061609	12:45	718	JSseeLH41	25	500	0
061609	12:45	718	LH41 girl	26	2331	girl
061609	12:45	718	JSLH41	27	623	9
061609	12:45	718	JSseeHL08	28	500	0
061609	12:45	718	HL08 math	29	2166	math
061609	12:45	718	JSHL08	30	912	9
061609	12:45	718	JSseeHL30	31	500	0
061609	12:45	718	HL30 air	32	3835	dispair
061609	12:45	718	JSHL30	33	999	5
061609	12:45	718	JSseeLH34	34	500	0
061609	12:45	718	LH34 panel	35	3088	panel
061609	12:45	718	JSLH34	36	1290	5
061609	12:45	718	JSseeHL37	37	500	0
061609	12:45	718	HL37 thread	38	2250	thread
061609	12:45	718	JSHL37	39	531	9
061609	12:45	718	JSseeUR23	40	500	0
061609	12:45	718	UR23 abundance	41	4742	avoid
061609	12:45	718	JSUR23	42	792	5
061609	12:45	718	JSseeUR94	43	500	0
061609	12:45	718	UR94 bristle	44	3264	bristle
061609	12:45	718	JSUR94	45	1256	2
061609	12:45	718	JSseeLH29	46	500	0
061609	12:45	718	LH29 closet	47	2107	closet
061609	12:45	718	JSLH29	48	986	5
061609	12:45	718	JSseeUR97	49	500	0
061609	12:45	718	UR97 banner	50	2425	banner
061609	12:45	718	JSUR97	51	6703	5
061609	12:45	718	JSseeUR73	52	500	0
061609	12:45	718	UR73 kite	53	3314	knife
061609	12:45	718	JSUR73	54	857	3
061609	12:45	718	JSseeHL15	55	500	0
061609	12:45	718	HL15 bomb	56	2590	bomb
061609	12:45	718	JSHL15	57	1176	4
061609	12:45	718	JSseeUR05	58	500	0
061609	12:45	718	UR05 lease	59	2713	lease
061609	12:45	718	JSUR05	60	837	3
061609	12:45	718	JSseeLH40	61	500	0
061609	12:45	718	LH40 field	62	2441	field
061609	12:45	718	JSLH40	63	886	5
061609	12:45	718	JSseeUR09	64	500	0
061609	12:45	718	UR09 education	65	6994	author
061609	12:45	718	JSUR09	66	3382	5
061609	12:45	718	JSseeHL18	67	500	0
061609	12:45	718	HL18 paper	68	1989	paper
061609	12:45	718	JSHL18	69	932	9
061609	12:45	718	JSseeUR61	70	500	0
061609	12:45	718	UR61 suicide	71	2458	suicide
061609	12:45	718	JSUR61	72	637	3
061609	12:45	718	JSseeLH18	73	500	0
061609	12:45	718	LH18 edge	74	1966	edge
061609	12:45	718	JSLH18	75	2016	8
061609	12:45	718	JSseeHL04	76	500	0
061609	12:45	718	HL04 beer	77	1925	beer
061609	12:45	718	JSHL04	78	692	5
061609	12:45	718	JSseeUR19	79	500	0
061609	12:45	718	UR19 bison	80	3732	bison
061609	12:45	718	JSUR19	81	1585	2
061609	12:45	718	JSseeLH12	82	500	0
061609	12:45	718	LH12 addition	83	3013	addition
061609	12:45	718	JSLH12	84	1001	9
061609	12:45	718	JSseeHL02	85	500	0
061609	12:45	718	HL02 flower	86	3760	door
061609	12:45	718	JSHL02	87	924	5
061609	12:45	718	JSseeLH36	88	500	0
061609	12:45	718	LH36 gang	89	2433	gang
061609	12:45	718	JSLH36	90	1370	4
061609	12:45	718	JSseeLH48	91	500	0
061609	12:45	718	LH48 outcome	92	4192	outcome
061609	12:45	718	JSLH48	93	2450	9
061609	12:45	718	JSseeLH15	94	500	0
061609	12:45	718	LH15 blessing	95	3102	blessing
061609	12:45	718	JSLH15	96	2026	9
061609	12:45	718	JSseeHL35	97	500	0
061609	12:45	718	HL35 cake	98	1657	cake
061609	12:45	718	JSHL35	99	2339	9
061609	12:45	718	JSseeUR40	100	500	0
061609	12:45	718	UR40 dancer	101	4526	hair
061609	12:45	718	JSUR40	102	758	5
061609	12:45	718	JSseeUR88	103	500	0
061609	12:45	718	UR88 circus	104	2489	circus
061609	12:45	718	JSUR88	105	1007	2
061609	12:45	718	JSseeUR81	106	500	0
061609	12:45	718	UR81 acid	107	2855	acid
061609	12:45	718	JSUR81	108	797	2
061609	12:45	718	JSseeUR92	109	500	0
061609	12:45	718	UR92 dart	110	2767	dark
061609	12:45	718	JSUR92	111	1034	8
061609	12:45	718	JSseeHL44	112	500	0
061609	12:45	718	HL44 baseball	113	3089	baseball
061609	12:45	718	JSHL44	114	6437	8
061609	12:45	718	JSseeHL46	115	500	0
061609	12:45	718	HL46 butter	116	2317	butter
061609	12:45	718	JSHL46	117	1271	6
061609	12:45	718	JSseeUR15	118	500	0
061609	12:45	718	UR15 compass	119	2986	compass
061609	12:45	718	JSUR15	120	2400	3
061609	12:45	718	JSseeLH35	121	500	0
061609	12:45	718	LH35 shelter	122	2470	shelter
061609	12:45	718	JSLH35	123	720	5
061609	12:45	718	JSseeUR91	124	500	0
061609	12:45	718	UR91 anteater	125	2436	theater
061609	12:45	718	JSUR91	126	946	2
061609	12:45	718	JSseeLH08	127	500	0
061609	12:45	718	LH08 house	128	2450	house
061609	12:45	718	JSLH08	129	4312	6
061609	12:45	718	JSseeLH21	130	500	0
061609	12:45	718	LH21 monument	131	7012	monument
061609	12:45	718	JSLH21	132	2742	8
061609	12:45	718	JSseeUR83	133	500	0
061609	12:45	718	UR83 lesson	134	5859	arouse
061609	12:45	718	JSUR83	135	1107	3
061609	12:45	718	JSseeHL22	136	500	0
061609	12:45	718	HL22 problem	137	3115	problem
061609	12:45	718	JSHL22	138	1229	6
061609	12:45	718	JSseeLH47	139	500	0
061609	12:45	718	LH47 detergent	140	3719	deliver
061609	12:45	718	JSLH47	141	688	5
061609	12:45	718	JSseeUR56	142	500	0
061609	12:45	718	UR56 antler	143	2956	aner
061609	12:45	718	JSUR56	144	642	4
061609	12:45	718	JSseeUR80	145	500	0
061609	12:45	718	UR80 antique	146	3391	antique
061609	12:45	718	JSUR80	147	1113	3
061609	12:45	718	JSseeUR11	148	500	0
061609	12:45	718	UR11 foundation	149	6277	fountain
061609	12:45	718	JSUR11	150	3785	2
061609	12:45	718	JSseeHL11	151	500	0
061609	12:45	718	HL11 rock	152	2445	rock
061609	12:45	718	JSHL11	153	1238	9
061609	12:45	718	JSseeLH16	154	500	0
061609	12:45	718	LH16 power	155	2263	power
061609	12:45	718	JSLH16	156	1063	5
061609	12:45	718	JSseeUR18	157	500	0
061609	12:45	718	UR18 relief	158	2557	relief
061609	12:45	718	JSUR18	159	2177	5
061609	12:45	718	JSseeLH39	160	500	0
061609	12:45	718	LH39 reward	161	2181	reward
061609	12:45	718	JSLH39	162	961	3
061609	12:45	718	JSseeUR79	163	500	0
061609	12:45	718	UR79 beetle	164	2485	beetle
061609	12:45	718	JSUR79	165	564	2
061609	12:45	718	JSseeUR102	166	500	0
061609	12:45	718	UR102 velocity	167	2641	velocity
061609	12:45	718	JSUR102	168	2462	2
061609	12:45	718	JSseeUR101	169	500	0
061609	12:45	718	UR101 beard	170	6216	beard
061609	12:45	718	JSUR101	171	1084	5
061609	12:45	718	JSseeUR72	172	500	0
061609	12:45	718	UR72 band	173	2255	band
061609	12:45	718	JSUR72	174	980	2
061609	12:45	718	JSseeUR51	175	500	0
061609	12:45	718	UR51 cabbage	176	3386	cabin
061609	12:45	718	JSUR51	177	1030	3
061609	12:45	718	JSseeHL54	178	500	0
061609	12:45	718	HL54 indian	179	3113	indian
061609	12:45	718	JSHL54	180	939	6
061609	12:45	718	JSseeUR39	181	500	0
061609	12:45	718	UR39 faith	182	3017	faith
061609	12:45	718	JSUR39	183	969	9
061609	12:45	718	JSseeUR49	184	500	0
061609	12:45	718	UR49 casket	185	3913	casket
061609	12:45	718	JSUR49	186	1013	2
061609	12:45	718	JSseeLH49	187	500	0
061609	12:45	718	LH49 kindness	188	2648	kindness
061609	12:45	718	JSLH49	189	642	8
061609	12:45	718	JSseeUR10	190	500	0
061609	12:45	718	UR10 tribe	191	2325	tribe
061609	12:45	718	JSUR10	192	1077	3
061609	12:45	718	JSseeHL06	193	500	0
061609	12:45	718	HL06 egg	194	1808	egg
061609	12:45	718	JSHL06	195	967	5
061609	12:45	718	JSseeUR71	196	500	0
061609	12:45	718	UR71 padding	197	3347	padding
061609	12:45	718	JSUR71	198	761	3
061609	12:45	718	JSseeUR25	199	500	0
061609	12:45	718	UR25 partner	200	2788	partner
061609	12:45	718	JSUR25	201	824	2
061609	12:45	718	JSseeUR03	202	500	0
061609	12:45	718	UR03 vehicle	203	8163	vehicle
061609	12:45	718	JSUR03	204	2098	3
061609	12:45	718	JSseeHL28	205	500	0
061609	12:45	718	HL28 bird	206	2406	bird
061609	12:45	718	JSHL28	207	2199	4
061609	12:45	718	JSseeUR100	208	500	0
061609	12:45	718	UR100 comb	209	2647	comb
061609	12:45	718	JSUR100	210	937	2
061609	12:45	718	JSseeUR89	211	500	0
061609	12:45	718	UR89 crow	212	2110	crow
061609	12:45	718	JSUR89	213	722	2
061609	12:45	718	JSseeUR29	214	500	0
061609	12:45	718	UR29 patrol	215	2772	patrol
061609	12:45	718	JSUR29	216	1236	2
061609	12:45	718	JSseeHL38	217	500	0
061609	12:45	718	HL38 boat	218	2560	boat
061609	12:45	718	JSHL38	219	1004	3
061609	12:45	718	JSseeLH33	220	500	0
061609	12:45	718	LH33 fable	221	3153	fable
061609	12:45	718	JSLH33	222	808	6
061609	12:45	718	JSseeUR31	223	500	0
061609	12:45	718	UR31 diameter	224	3739	diameter
061609	12:45	718	JSUR31	225	1898	6
061609	12:45	718	JSseeHL19	226	500	0
061609	12:45	718	HL19 car	227	1897	car
061609	12:45	718	JSHL19	228	960	2
061609	12:45	718	JSseeLH31	229	500	0
061609	12:45	718	LH31 self	230	3017	self
061609	12:45	718	JSLH31	231	1140	8
061609	12:45	718	JSseeLH13	232	500	0
061609	12:45	718	LH13 crease	233	2515	crease
061609	12:45	718	JSLH13	234	1077	7
061609	12:45	718	JSseeUR37	235	500	0
061609	12:45	718	UR37 cloth	236	2303	cloth
061609	12:45	718	JSUR37	237	799	6
061609	12:45	718	JSseeHL27	238	500	0
061609	12:45	718	HL27 rain	239	1859	rain
061609	12:45	718	JSHL27	240	730	9
061609	12:45	718	JSseeUR104	241	500	0
061609	12:45	718	UR104 aardvark	242	7097	ammark
061609	12:45	718	JSUR104	243	698	9
061609	12:45	718	JSseeUR38	244	500	0
061609	12:45	718	UR38 energy	245	2339	energy
061609	12:45	718	JSUR38	246	2203	4
061609	12:45	718	JSseeUR90	247	500	0
061609	12:45	718	UR90 sailing	248	3540	sailing
061609	12:45	718	JSUR90	249	1571	3
061609	12:45	718	JSseeUR57	250	500	0
061609	12:45	718	UR57 benefit	251	4215	benefit
061609	12:45	718	JSUR57	252	748	2
061609	12:45	718	JSseeUR86	253	500	0
061609	12:45	718	UR86 boulevard	254	5904	boulevard
061609	12:45	718	JSUR86	255	1147	2
061609	12:45	718	JSseeLH45	256	500	0
061609	12:45	718	LH45 intellect	257	4979	intellect
061609	12:45	718	JSLH45	258	866	3
061609	12:45	718	JSseeLH26	259	500	0
061609	12:45	718	LH26 center	260	2619	center
061609	12:45	718	JSLH26	261	1957	5
061609	12:45	718	JSseeUR12	262	500	0
061609	12:45	718	UR12 unicorn	263	4787	unicorn
061609	12:45	718	JSUR12	264	1121	2
061609	12:45	718	JSseeUR108	265	500	0
061609	12:45	718	UR108 shield	266	4562	shield
061609	12:45	718	JSUR108	267	2556	3
061609	12:45	718	JSseeUR99	268	500	0
061609	12:45	718	UR99 branch	269	4443	branch
061609	12:45	718	JSUR99	270	2414	3
061609	12:45	718	JSseeHL29	271	500	0
061609	12:45	718	HL29 ring	272	2910	boring
061609	12:45	718	JSHL29	273	896	2
061609	12:45	718	JSseeHL26	274	500	0
061609	12:45	718	HL26 light	275	2419	light
061609	12:45	718	JSHL26	276	694	3
061609	12:45	718	JSseeLH28	277	500	0
061609	12:45	718	LH28 vagrant	278	3486	vigorant
061609	12:45	718	JSLH28	279	936	2
061609	12:45	718	JSseeHL52	280	500	0
061609	12:45	718	HL52 sand	281	2720	stand
061609	12:45	718	JSHL52	282	1248	3
061609	12:45	718	JSseeHL48	283	500	0
061609	12:45	718	HL48 airplane	284	2769	airplane
061609	12:45	718	JSHL48	285	933	9
061609	12:45	718	JSseeUR43	286	500	0
061609	12:45	718	UR43 balloon	287	3450	balloon
061609	12:45	718	JSUR43	288	1038	2
061609	12:45	718	JSseeUR93	289	500	0
061609	12:45	718	UR93 catcher	290	2406	catcher
061609	12:45	718	JSUR93	291	798	2
061609	12:45	718	JSseeHL20	292	500	0
061609	12:45	718	HL20 wine	293	2085	wine
061609	12:45	718	JSHL20	294	1019	9
061609	12:45	718	JSseeHL13	295	500	0
061609	12:45	718	HL13 map	296	2419	map
061609	12:45	718	JSHL13	297	1609	9
061609	12:45	718	JSseeHL12	298	500	0
061609	12:45	718	HL12 space	299	3640	space
061609	12:45	718	JSHL12	300	883	9
061609	12:45	718	JSseeUR02	301	500	0
061609	12:45	718	UR02 comma	302	2571	coma
061609	12:45	718	JSUR02	303	1159	2
061609	12:45	718	JSseeUR48	304	500	0
061609	12:45	718	UR48 democracy	305	4971	democracy
061609	12:45	718	JSUR48	306	1427	6
061609	12:45	718	JSseeUR08	307	500	0
061609	12:45	718	UR08 assistant	308	6750	assistant
061609	12:45	718	JSUR08	309	994	6
061609	12:45	718	JSseeUR84	310	500	0
061609	12:45	718	UR84 flag	311	3012	flag
061609	12:45	718	JSUR84	312	660	2
061609	12:45	718	JSseeUR26	313	500	0
061609	12:45	718	UR26 eternity	314	2948	eternity
061609	12:45	718	JSUR26	315	621	8
061609	12:45	718	JSseeLH52	316	500	0
061609	12:45	718	LH52 bureau	317	4863	bureau
061609	12:45	718	JSLH52	318	805	8
061609	12:45	718	JSseeUR44	319	500	0
061609	12:45	718	UR44 rot	320	2543	robot
061609	12:45	718	JSUR44	321	866	2
061609	12:45	718	JSseeUR16	322	500	0
061609	12:45	718	UR16 century	323	3196	century
061609	12:45	718	JSUR16	324	710	8
