date	time	subject	trialcode	trialnum	latency	response
062909	14:50	733	JAseePR17	1	500	0
062909	14:50	733	PR17 emerald	2	25801	emarald
062909	14:50	733	JAPR17	3	28414	9
062909	14:50	733	JAseePR27	4	500	0
062909	14:50	733	PR27 wheat	5	8465	heat
062909	14:50	733	JAPR27	6	7174	7
062909	14:50	733	JAseePR07	7	500	0
062909	14:50	733	PR07 bog	8	8879	blog
062909	14:50	733	JAPR07	9	6497	4
062909	14:50	733	JAseePR23	10	500	0
062909	14:50	733	PR23 companion	11	6800	champion
062909	14:50	733	JAPR23	12	4349	2
062909	14:50	733	JAseePR06	13	500	0
062909	14:50	733	PR06 beast	14	7544	beast
062909	14:50	733	JAPR06	15	3576	9
062909	14:50	733	JAseePR09	16	500	0
062909	14:50	733	PR09 album	17	15802	alum
062909	14:50	733	JAPR09	18	5139	8
062909	14:50	733	JAseePR21	19	500	0
062909	14:50	733	PR21 innocence	20	9522	innocent
062909	14:50	733	JAPR21	21	7534	8
062909	14:50	733	JAseePR01	22	500	0
062909	14:50	733	PR01 cash	23	5532	0
062909	14:50	733	JAPR01	24	3909	4
062909	14:50	733	JAseePR11	25	500	0
062909	14:50	733	PR11 ounce	26	8206	bounce
062909	14:50	733	JAPR11	27	3887	5
062909	14:50	733	JAseePR25	28	500	0
062909	14:50	733	PR25 saliva	29	3927	cashew
062909	14:50	733	JAPR25	30	5042	8
062909	14:50	733	JAseePR30	31	500	0
062909	14:50	733	PR30 maiden	32	7099	0
062909	14:50	733	JAPR30	33	5166	6
062909	14:50	733	JAseePR03	34	500	0
062909	14:50	733	PR03 acre	35	10673	acorn
062909	14:50	733	JAPR03	36	2846	9
062909	14:50	733	JAseePR13	37	500	0
062909	14:50	733	PR13 ambition	38	18274	breeze
062909	14:50	733	JAPR13	39	4220	6
062909	14:50	733	JAseePR04	40	500	0
062909	14:50	733	PR04 diaper	41	4694	cheap
062909	14:50	733	JAPR04	42	5074	9
062909	14:50	733	JAseeUR53	1	500	0
062909	14:50	733	UR53 hell	2	3824	dress
062909	14:50	733	JAUR53	3	23636	6
062909	14:50	733	JAseeUR13	4	500	0
062909	14:50	733	UR13 almanac	5	9084	man
062909	14:50	733	JAUR13	6	5153	1
062909	14:50	733	JAseeHL07	7	500	0
062909	14:50	733	HL07 king	8	14098	chair
062909	14:50	733	JAHL07	9	5039	2
062909	14:50	733	JAseeLH05	10	500	0
062909	14:50	733	LH05 chain	11	3199	chain
062909	14:50	733	JALH05	12	6840	1
062909	14:50	733	JAseeLH02	13	500	0
062909	14:50	733	LH02 harm	14	2401	harm
062909	14:50	733	JALH02	15	5641	7
062909	14:50	733	JAseeUR64	16	500	0
062909	14:50	733	UR64 fist	17	3808	fist
062909	14:50	733	JAUR64	18	6320	8
062909	14:50	733	JAseeUR32	19	500	0
062909	14:50	733	UR32 navigator	20	10947	alarm
062909	14:50	733	JAUR32	21	2466	9
062909	14:50	733	JAseeLH50	22	500	0
062909	14:50	733	LH50 measure	23	4178	measure
062909	14:50	733	JALH50	24	6591	8
062909	14:50	733	JAseeLH27	25	500	0
062909	14:50	733	LH27 condition	26	4776	condition
062909	14:50	733	JALH27	27	4260	2
062909	14:50	733	JAseeHL17	28	500	0
062909	14:50	733	HL17 soap	29	2368	soap
062909	14:50	733	JAHL17	30	6634	5
062909	14:50	733	JAseeUR74	31	500	0
062909	14:50	733	UR74 suitcase	32	5859	sunrise
062909	14:50	733	JAUR74	33	13955	4
062909	14:50	733	JAseeHL36	34	500	0
062909	14:50	733	HL36 football	35	3613	ball
062909	14:50	733	JAHL36	36	6027	1
062909	14:50	733	JAseeLH20	37	500	0
062909	14:50	733	LH20 violation	38	4669	violent
062909	14:50	733	JALH20	39	6716	8
062909	14:50	733	JAseeLH54	40	500	0
062909	14:50	733	LH54 limit	41	4241	limit
062909	14:50	733	JALH54	42	15495	5
062909	14:50	733	JAseeLH51	43	500	0
062909	14:50	733	LH51 exit	44	6484	socket
062909	14:50	733	JALH51	45	10038	8
062909	14:50	733	JAseeUR35	46	500	0
062909	14:50	733	UR35 cause	47	4116	cause
062909	14:50	733	JAUR35	48	8166	6
062909	14:50	733	JAseeLH19	49	500	0
062909	14:50	733	LH19 snob	50	3645	knob
062909	14:50	733	JALH19	51	6960	9
062909	14:50	733	JAseeHL51	52	500	0
062909	14:50	733	HL51 color	53	3157	color
062909	14:50	733	JAHL51	54	3634	2
062909	14:50	733	JAseeHL47	55	500	0
062909	14:50	733	HL47 horse	56	2693	horse
062909	14:50	733	JAHL47	57	4411	7
062909	14:50	733	JAseeUR45	58	500	0
062909	14:50	733	UR45 bridge	59	4291	bridge
062909	14:50	733	JAUR45	60	7064	9
062909	14:50	733	JAseeUR69	61	500	0
062909	14:50	733	UR69 flashlight	62	13436	vanilla
062909	14:50	733	JAUR69	63	3184	2
062909	14:50	733	JAseeUR76	64	500	0
062909	14:50	733	UR76 dignity	65	4898	digit
062909	14:50	733	JAUR76	66	2730	1
062909	14:50	733	JAseeLH24	67	500	0
062909	14:50	733	LH24 feeling	68	4347	faith
062909	14:50	733	JALH24	69	2931	8
062909	14:50	733	JAseeHL53	70	500	0
062909	14:50	733	HL53 fish	71	2828	fish
062909	14:50	733	JAHL53	72	6079	5
062909	14:50	733	JAseeUR55	73	500	0
062909	14:50	733	UR55 bargain	74	4137	god
062909	14:50	733	JAUR55	75	5475	7
062909	14:50	733	JAseeUR50	76	500	0
062909	14:50	733	UR50 crane	77	4554	race
062909	14:50	733	JAUR50	78	8442	4
062909	14:50	733	JAseeHL43	79	500	0
062909	14:50	733	HL43 money	80	3271	money
062909	14:50	733	JAHL43	81	7014	10
062909	14:50	733	JAseeLH11	82	500	0
062909	14:50	733	LH11 cancer	83	3795	cancer
062909	14:50	733	JALH11	84	3393	7
062909	14:50	733	JAseeUR77	85	500	0
062909	14:50	733	UR77 uncle	86	12847	cheaper
062909	14:50	733	JAUR77	87	6217	8
062909	14:50	733	JAseeUR27	88	500	0
062909	14:50	733	UR27 consequence	89	4155	control
062909	14:50	733	JAUR27	90	6017	2
062909	14:50	733	JAseeUR68	91	500	0
062909	14:50	733	UR68 fatigue	92	3544	fatigue
062909	14:50	733	JAUR68	93	7847	4
062909	14:50	733	JAseeUR22	94	500	0
062909	14:50	733	UR22 thesaurus	95	5604	baseball
062909	14:50	733	JAUR22	96	6656	10
062909	14:50	733	JAseeUR07	97	500	0
062909	14:50	733	UR07 gathering	98	6622	bandage
062909	14:50	733	JAUR07	99	11827	9
062909	14:50	733	JAseeUR95	100	500	0
062909	14:50	733	UR95 fool	101	3350	foot
062909	14:50	733	JAUR95	102	3010	9
062909	14:50	733	JAseeUR63	103	500	0
062909	14:50	733	UR63 alley	104	4278	alley
062909	14:50	733	JAUR63	105	9280	6
062909	14:50	733	JAseeUR06	106	500	0
062909	14:50	733	UR06 cello	107	3805	cold
062909	14:50	733	JAUR06	108	5864	5
062909	14:50	733	JAseeHL34	109	500	0
062909	14:50	733	HL34 hunger	110	2926	hunger
062909	14:50	733	JAHL34	111	6165	8
062909	14:50	733	JAseeUR66	112	500	0
062909	14:50	733	UR66 chief	113	10165	chef
062909	14:50	733	JAUR66	114	7847	6
062909	14:50	733	JAseeUR67	115	500	0
062909	14:50	733	UR67 producer	116	4190	grow
062909	14:50	733	JAUR67	117	1934	1
062909	14:50	733	JAseeUR36	118	500	0
062909	14:50	733	UR36 denim	119	2891	anger
062909	14:50	733	JAUR36	120	3551	2
062909	14:50	733	JAseeUR34	121	500	0
062909	14:50	733	UR34 charity	122	4258	error
062909	14:50	733	JAUR34	123	3797	8
062909	14:50	733	JAseeLH14	124	500	0
062909	14:50	733	LH14 note	125	3210	note
062909	14:50	733	JALH14	126	5691	3
062909	14:50	733	JAseeHL50	127	500	0
062909	14:50	733	HL50 doctor	128	3037	doctor
062909	14:50	733	JAHL50	129	8414	1
062909	14:50	733	JAseeLH03	130	500	0
062909	14:50	733	LH03 yard	131	3214	yard
062909	14:50	733	JALH03	132	11139	9
062909	14:50	733	JAseeLH22	133	500	0
062909	14:50	733	LH22 crowd	134	2382	crowd
062909	14:50	733	JALH22	135	4771	2
062909	14:50	733	JAseeUR46	136	500	0
062909	14:50	733	UR46 content	137	2964	content
062909	14:50	733	JAUR46	138	4383	3
062909	14:50	733	JAseeUR75	139	500	0
062909	14:50	733	UR75 awe	140	3277	haw
062909	14:50	733	JAUR75	141	5801	4
062909	14:50	733	JAseeUR78	142	500	0
062909	14:50	733	UR78 blender	143	5105	defend
062909	14:50	733	JAUR78	144	2257	1
062909	14:50	733	JAseeHL39	145	500	0
062909	14:50	733	HL39 book	146	7564	blz
062909	14:50	733	JAHL39	147	9005	5
062909	14:50	733	JAseeUR62	148	500	0
062909	14:50	733	UR62 chemistry	149	6009	chemistry
062909	14:50	733	JAUR62	150	6083	3
062909	14:50	733	JAseeLH04	151	500	0
062909	14:50	733	LH04 grade	152	3645	grade
062909	14:50	733	JALH04	153	3227	2
062909	14:50	733	JAseeHL03	154	500	0
062909	14:50	733	HL03 cigarette	155	5613	cigarette
062909	14:50	733	JAHL03	156	5868	8
062909	14:50	733	JAseeUR20	157	500	0
062909	14:50	733	UR20 climax	158	8295	clmial
062909	14:50	733	JAUR20	159	6458	3
062909	14:50	733	JAseeLH23	160	500	0
062909	14:50	733	LH23 possibility	161	4018	possibility
062909	14:50	733	JALH23	162	3871	4
062909	14:50	733	JAseeHL09	163	500	0
062909	14:50	733	HL09 chalk	164	2883	hawkes
062909	14:50	733	JAHL09	165	7473	10
062909	14:50	733	JAseeLH01	166	500	0
062909	14:50	733	LH01 brain	167	2590	brain
062909	14:50	733	JALH01	168	5434	9
062909	14:50	733	JAseeHL42	169	500	0
062909	14:50	733	HL42 pie	170	2749	pie
062909	14:50	733	JAHL42	171	4240	6
062909	14:50	733	JAseeLH43	172	500	0
062909	14:50	733	LH43 noise	173	2803	noise
062909	14:50	733	JALH43	174	5200	3
062909	14:50	733	JAseeLH30	175	500	0
062909	14:50	733	LH30 assignment	176	4833	assignment
062909	14:50	733	JALH30	177	5244	5
062909	14:50	733	JAseeLH53	178	500	0
062909	14:50	733	LH53 core	179	1795	core
062909	14:50	733	JALH53	180	5136	5
062909	14:50	733	JAseeUR47	181	500	0
062909	14:50	733	UR47 chimpanzee	182	7043	sweep
062909	14:50	733	JAUR47	183	3992	2
062909	14:50	733	JAseeUR42	184	500	0
062909	14:50	733	UR42 sergeant	185	3993	serve
062909	14:50	733	JAUR42	186	4038	9
062909	14:50	733	JAseeUR01	187	500	0
062909	14:50	733	UR01 file	188	4888	ail
062909	14:50	733	JAUR01	189	9527	3
062909	14:50	733	JAseeUR87	190	500	0
062909	14:50	733	UR87 duty	191	2345	duty
062909	14:50	733	JAUR87	192	4930	7
062909	14:50	733	JAseeHL24	193	500	0
062909	14:50	733	HL24 eye	194	2865	eye
062909	14:50	733	JAHL24	195	5963	10
062909	14:50	733	JAseeUR58	196	500	0
062909	14:50	733	UR58 answer	197	4127	answer
062909	14:50	733	JAUR58	198	9325	7
062909	14:50	733	JAseeHL41	199	500	0
062909	14:50	733	HL41 hand	200	3099	hand
062909	14:50	733	JAHL41	201	2211	3
062909	14:50	733	JAseeUR54	202	500	0
062909	14:50	733	UR54 steam	203	3985	stem
062909	14:50	733	JAUR54	204	3268	2
062909	14:50	733	JAseeUR82	205	500	0
062909	14:50	733	UR82 campus	206	3816	control
062909	14:50	733	JAUR82	207	7570	9
062909	14:50	733	JAseeHL49	208	500	0
062909	14:50	733	HL49 spice	209	3378	spice
062909	14:50	733	JAHL49	210	3119	1
062909	14:50	733	JAseeUR103	211	500	0
062909	14:50	733	UR103 hula	212	4238	hula
062909	14:50	733	JAUR103	213	4179	8
062909	14:50	733	JAseeUR70	214	500	0
062909	14:50	733	UR70 pajamas	215	4533	jam
062909	14:50	733	JAUR70	216	4458	2
062909	14:50	733	JAseeHL23	217	500	0
062909	14:50	733	HL23 baby	218	2537	baby
062909	14:50	733	JAHL23	219	4780	4
062909	14:50	733	JAseeLH09	220	500	0
062909	14:50	733	LH09 piece	221	3155	piece
062909	14:50	733	JALH09	222	3818	2
062909	14:50	733	JAseeHL05	223	500	0
062909	14:50	733	HL05 mountain	224	3927	mountain
062909	14:50	733	JAHL05	225	8438	5
062909	14:50	733	JAseeHL25	226	500	0
062909	14:50	733	HL25 cut	227	4440	cut
062909	14:50	733	JAHL25	228	10102	9
062909	14:50	733	JAseeHL32	229	500	0
062909	14:50	733	HL32 television	230	6124	television
062909	14:50	733	JAHL32	231	3330	1
062909	14:50	733	JAseeLH38	232	500	0
062909	14:50	733	LH38 paint	233	3385	paint
062909	14:50	733	JALH38	234	4715	8
062909	14:50	733	JAseeUR52	235	500	0
062909	14:50	733	UR52 knight	236	4192	tight
062909	14:50	733	JAUR52	237	5088	10
062909	14:50	733	JAseePR28	238	500	0
062909	14:50	733	PR28 challenge	239	5677	challenge
062909	14:50	733	JAPR28	240	5818	4
062909	14:50	733	JAseeLH25	241	500	0
062909	14:50	733	LH25 track	242	3469	track
062909	14:50	733	JALH25	243	4305	3
062909	14:50	733	JAseeUR24	244	500	0
062909	14:50	733	UR24 kid	245	2918	kid
062909	14:50	733	JAUR24	246	4547	5
062909	14:50	733	JAseeUR17	247	500	0
062909	14:50	733	UR17 trance	248	6337	pirate
062909	14:50	733	JAUR17	249	3797	9
062909	14:50	733	JAseeHL10	250	500	0
062909	14:50	733	HL10 cow	251	2600	cow
062909	14:50	733	JAHL10	252	3471	5
062909	14:50	733	JAseeUR30	253	500	0
062909	14:50	733	UR30 lover	254	21565	cancer
062909	14:50	733	JAUR30	255	13900	7
062909	14:50	733	JAseeUR14	256	500	0
062909	14:50	733	UR14 fudge	257	4190	judge
062909	14:50	733	JAUR14	258	14621	8
062909	14:50	733	JAseeUR60	259	500	0
062909	14:50	733	UR60 plaque	260	13003	plq
062909	14:50	733	JAUR60	261	5840	3
062909	14:50	733	JAseeHL21	262	500	0
062909	14:50	733	HL21 empire	263	2593	empire
062909	14:50	733	JAHL21	264	5225	3
062909	14:50	733	JAseeHL45	265	500	0
062909	14:50	733	HL45 words	266	2721	words
062909	14:50	733	JAHL45	267	7507	2
062909	14:50	733	JAseeUR107	268	500	0
062909	14:50	733	UR107 cocaine	269	7768	ain
062909	14:50	733	JAUR107	270	6872	9
062909	14:50	733	JAseeLH46	271	500	0
062909	14:50	733	LH46 submarine	272	5553	submarine
062909	14:50	733	JALH46	273	2574	9
062909	14:50	733	JAseeUR85	274	500	0
062909	14:50	733	UR85 stroke	275	2967	stroke
062909	14:50	733	JAUR85	276	12193	2
062909	14:50	733	JAseeUR28	277	500	0
062909	14:50	733	UR28 bang	278	3275	bang
062909	14:50	733	JAUR28	279	4047	9
062909	14:50	733	JAseeUR98	280	500	0
062909	14:50	733	UR98 latch	281	3449	latch
062909	14:50	733	JAUR98	282	5243	2
062909	14:50	733	JAseeUR105	283	500	0
062909	14:50	733	UR105 curtain	284	6111	curtain
062909	14:50	733	JAUR105	285	3953	1
062909	14:50	733	JAseeUR65	286	500	0
062909	14:50	733	UR65 checkers	287	5314	checkers
062909	14:50	733	JAUR65	288	2849	10
062909	14:50	733	JAseeUR106	289	500	0
062909	14:50	733	UR106 eagle	290	2313	eagle
062909	14:50	733	JAUR106	291	3326	10
062909	14:50	733	JAseeLH17	292	500	0
062909	14:50	733	LH17 life	293	2802	life
062909	14:50	733	JALH17	294	6194	4
062909	14:50	733	JAseeUR04	295	500	0
062909	14:50	733	UR04 marsh	296	3023	marsh
062909	14:50	733	JAUR04	297	6086	9
062909	14:50	733	JAseeHL31	298	500	0
062909	14:50	733	HL31 war	299	2169	war
062909	14:50	733	JAHL31	300	3210	1
062909	14:50	733	JAseeLH07	301	500	0
062909	14:50	733	LH07 rear	302	3786	near
062909	14:50	733	JALH07	303	8610	1
062909	14:50	733	JAseeHL33	304	500	0
062909	14:50	733	HL33 joke	305	2271	joke
062909	14:50	733	JAHL33	306	3106	2
062909	14:50	733	JAseeHL01	307	500	0
062909	14:50	733	HL01 elephant	308	4321	elephant
062909	14:50	733	JAHL01	309	3429	2
062909	14:50	733	JAseeLH37	310	500	0
062909	14:50	733	LH37 pad	311	2010	pad
062909	14:50	733	JALH37	312	7546	6
062909	14:50	733	JAseeHL14	313	500	0
062909	14:50	733	HL14 milk	314	4512	mail
062909	14:50	733	JAHL14	315	2763	9
062909	14:50	733	JAseeUR96	316	500	0
062909	14:50	733	UR96 dessert	317	4233	ster
062909	14:50	733	JAUR96	318	6478	9
062909	14:50	733	JAseeLH32	319	500	0
062909	14:50	733	LH32 capacity	320	4182	capacity
062909	14:50	733	JALH32	321	10611	5
062909	14:50	733	JAseeUR59	322	500	0
062909	14:50	733	UR59 copper	323	2690	copper
062909	14:50	733	JAUR59	324	7746	7
062909	14:50	733	JAseeUR21	325	500	0
062909	14:50	733	UR21 ore	326	2167	rose
062909	14:50	733	JAUR21	327	7442	8
062909	14:50	733	JSseePR26	1	500	0
062909	14:50	733	PR26 colonel	2	7307	face
062909	14:50	733	JSPR26	3	12138	3
062909	14:50	733	JSseePR24	4	500	0
062909	14:50	733	PR24 pest	5	2076	pest
062909	14:50	733	JSPR24	6	5186	5
062909	14:50	733	JSseePR08	7	500	0
062909	14:50	733	PR08 beef	8	3212	beef
062909	14:50	733	JSPR08	9	6042	7
062909	14:50	733	JSseePR05	10	500	0
062909	14:50	733	PR05 calf	11	2561	calf
062909	14:50	733	JSPR05	12	8564	6
062909	14:50	733	JSseePR14	13	500	0
062909	14:50	733	PR14 religion	14	3783	religion
062909	14:50	733	JSPR14	15	7190	8
062909	14:50	733	JSseePR19	16	500	0
062909	14:50	733	PR19 void	17	2916	void
062909	14:50	733	JSPR19	18	3745	9
062909	14:50	733	JSseePR12	19	500	0
062909	14:50	733	PR12 royalty	20	2637	royal
062909	14:50	733	JSPR12	21	5318	6
062909	14:50	733	JSseePR02	22	500	0
062909	14:50	733	PR02 wrinkle	23	3077	wrinkle
062909	14:50	733	JSPR02	24	6062	5
062909	14:50	733	JSseePR10	25	500	0
062909	14:50	733	PR10 camel	26	3805	camel
062909	14:50	733	JSPR10	27	2495	2
062909	14:50	733	JSseePR15	28	500	0
062909	14:50	733	PR15 depletion	29	3770	0
062909	14:50	733	JSPR15	30	2181	5
062909	14:50	733	JSseePR20	31	500	0
062909	14:50	733	PR20 advertisement	32	4683	advertisement
062909	14:50	733	JSPR20	33	3703	6
062909	14:50	733	JSseePR29	34	500	0
062909	14:50	733	PR29 mermaid	35	6438	rock
062909	14:50	733	JSPR29	36	2557	9
062909	14:50	733	JSseePR16	37	500	0
062909	14:50	733	PR16 compulsion	38	3943	0
062909	14:50	733	JSPR16	39	9896	8
062909	14:50	733	JSseePR22	40	500	0
062909	14:50	733	PR22 ass	41	2366	case
062909	14:50	733	JSPR22	42	6716	2
062909	14:50	733	JSseePR18	43	500	0
062909	14:50	733	PR18 clorox	44	1816	0
062909	14:50	733	JSPR18	45	1157	1
062909	14:50	733	JSseeUR33	1	500	0
062909	14:50	733	UR33 horror	2	4033	horror
062909	14:50	733	JSUR33	3	2537	7
062909	14:50	733	JSseeUR41	4	500	0
062909	14:50	733	UR41 chime	5	3863	crime
062909	14:50	733	JSUR41	6	2237	8
062909	14:50	733	JSseeLH06	7	500	0
062909	14:50	733	LH06 element	8	2737	element
062909	14:50	733	JSLH06	9	2452	6
062909	14:50	733	JSseeHL40	10	500	0
062909	14:50	733	HL40 temperature	11	4079	temperature
062909	14:50	733	JSHL40	12	2617	3
062909	14:50	733	JSseeLH10	13	500	0
062909	14:50	733	LH10 care	14	1764	care
062909	14:50	733	JSLH10	15	3201	7
062909	14:50	733	JSseeHL16	16	500	0
062909	14:50	733	HL16 broom	17	2445	broom
062909	14:50	733	JSHL16	18	6753	5
062909	14:50	733	JSseeLH42	19	500	0
062909	14:50	733	LH42 thought	20	2554	thought
062909	14:50	733	JSLH42	21	4123	8
062909	14:50	733	JSseeLH44	22	500	0
062909	14:50	733	LH44 vessel	23	3565	vessel
062909	14:50	733	JSLH44	24	4362	7
062909	14:50	733	JSseeLH41	25	500	0
062909	14:50	733	LH41 girl	26	2671	girl
062909	14:50	733	JSLH41	27	12170	2
062909	14:50	733	JSseeHL08	28	500	0
062909	14:50	733	HL08 math	29	2325	math
062909	14:50	733	JSHL08	30	7016	8
062909	14:50	733	JSseeHL30	31	500	0
062909	14:50	733	HL30 air	32	8331	air
062909	14:50	733	JSHL30	33	4495	5
062909	14:50	733	JSseeLH34	34	500	0
062909	14:50	733	LH34 panel	35	3686	panel
062909	14:50	733	JSLH34	36	2728	7
062909	14:50	733	JSseeHL37	37	500	0
062909	14:50	733	HL37 thread	38	2231	thread
062909	14:50	733	JSHL37	39	5333	8
062909	14:50	733	JSseeUR23	40	500	0
062909	14:50	733	UR23 abundance	41	7785	abundance
062909	14:50	733	JSUR23	42	3939	1
062909	14:50	733	JSseeUR94	43	500	0
062909	14:50	733	UR94 bristle	44	5017	bris
062909	14:50	733	JSUR94	45	5925	4
062909	14:50	733	JSseeLH29	46	500	0
062909	14:50	733	LH29 closet	47	3474	closet
062909	14:50	733	JSLH29	48	7624	5
062909	14:50	733	JSseeUR97	49	500	0
062909	14:50	733	UR97 banner	50	8332	diner
062909	14:50	733	JSUR97	51	6004	7
062909	14:50	733	JSseeUR73	52	500	0
062909	14:50	733	UR73 kite	53	3463	kite
062909	14:50	733	JSUR73	54	3541	5
062909	14:50	733	JSseeHL15	55	500	0
062909	14:50	733	HL15 bomb	56	3233	bomb
062909	14:50	733	JSHL15	57	4255	8
062909	14:50	733	JSseeUR05	58	500	0
062909	14:50	733	UR05 lease	59	4295	ease
062909	14:50	733	JSUR05	60	6074	6
062909	14:50	733	JSseeLH40	61	500	0
062909	14:50	733	LH40 field	62	2717	field
062909	14:50	733	JSLH40	63	4228	3
062909	14:50	733	JSseeUR09	64	500	0
062909	14:50	733	UR09 education	65	5966	writer
062909	14:50	733	JSUR09	66	4358	2
062909	14:50	733	JSseeHL18	67	500	0
062909	14:50	733	HL18 paper	68	3130	paper
062909	14:50	733	JSHL18	69	2971	5
062909	14:50	733	JSseeUR61	70	500	0
062909	14:50	733	UR61 suicide	71	3864	suicide
062909	14:50	733	JSUR61	72	6365	5
062909	14:50	733	JSseeLH18	73	500	0
062909	14:50	733	LH18 edge	74	2090	edge
062909	14:50	733	JSLH18	75	3576	4
062909	14:50	733	JSseeHL04	76	500	0
062909	14:50	733	HL04 beer	77	3923	beer
062909	14:50	733	JSHL04	78	6540	6
062909	14:50	733	JSseeUR19	79	500	0
062909	14:50	733	UR19 bison	80	4141	ison
062909	14:50	733	JSUR19	81	5867	6
062909	14:50	733	JSseeLH12	82	500	0
062909	14:50	733	LH12 addition	83	5310	edition
062909	14:50	733	JSLH12	84	4807	8
062909	14:50	733	JSseeHL02	85	500	0
062909	14:50	733	HL02 flower	86	3024	flower
062909	14:50	733	JSHL02	87	3204	4
062909	14:50	733	JSseeLH36	88	500	0
062909	14:50	733	LH36 gang	89	2548	gang
062909	14:50	733	JSLH36	90	2526	7
062909	14:50	733	JSseeLH48	91	500	0
062909	14:50	733	LH48 outcome	92	3915	outcome
062909	14:50	733	JSLH48	93	2135	3
062909	14:50	733	JSseeLH15	94	500	0
062909	14:50	733	LH15 blessing	95	3645	blessing
062909	14:50	733	JSLH15	96	3862	9
062909	14:50	733	JSseeHL35	97	500	0
062909	14:50	733	HL35 cake	98	3691	cake
062909	14:50	733	JSHL35	99	4908	5
062909	14:50	733	JSseeUR40	100	500	0
062909	14:50	733	UR40 dancer	101	5441	dancer
062909	14:50	733	JSUR40	102	3577	8
062909	14:50	733	JSseeUR88	103	500	0
062909	14:50	733	UR88 circus	104	3426	circus
062909	14:50	733	JSUR88	105	7340	6
062909	14:50	733	JSseeUR81	106	500	0
062909	14:50	733	UR81 acid	107	4216	diploma
062909	14:50	733	JSUR81	108	2985	7
062909	14:50	733	JSseeUR92	109	500	0
062909	14:50	733	UR92 dart	110	2255	dart
062909	14:50	733	JSUR92	111	3571	5
062909	14:50	733	JSseeHL44	112	500	0
062909	14:50	733	HL44 baseball	113	2089	bsll
062909	14:50	733	JSHL44	114	5300	7
062909	14:50	733	JSseeHL46	115	500	0
062909	14:50	733	HL46 butter	116	3342	butter
062909	14:50	733	JSHL46	117	2450	7
062909	14:50	733	JSseeUR15	118	500	0
062909	14:50	733	UR15 compass	119	6374	compass
062909	14:50	733	JSUR15	120	3947	8
062909	14:50	733	JSseeLH35	121	500	0
062909	14:50	733	LH35 shelter	122	2818	shelter
062909	14:50	733	JSLH35	123	8035	7
062909	14:50	733	JSseeUR91	124	500	0
062909	14:50	733	UR91 anteater	125	9418	eater
062909	14:50	733	JSUR91	126	4337	3
062909	14:50	733	JSseeLH08	127	500	0
062909	14:50	733	LH08 house	128	2310	house
062909	14:50	733	JSLH08	129	3150	8
062909	14:50	733	JSseeLH21	130	500	0
062909	14:50	733	LH21 monument	131	3835	monument
062909	14:50	733	JSLH21	132	1771	9
062909	14:50	733	JSseeUR83	133	500	0
062909	14:50	733	UR83 lesson	134	3284	lesson
062909	14:50	733	JSUR83	135	1899	6
062909	14:50	733	JSseeHL22	136	500	0
062909	14:50	733	HL22 problem	137	4672	problem
062909	14:50	733	JSHL22	138	3171	5
062909	14:50	733	JSseeLH47	139	500	0
062909	14:50	733	LH47 detergent	140	4172	butler
062909	14:50	733	JSLH47	141	2422	7
062909	14:50	733	JSseeUR56	142	500	0
062909	14:50	733	UR56 antler	143	4949	ant
062909	14:50	733	JSUR56	144	2380	5
062909	14:50	733	JSseeUR80	145	500	0
062909	14:50	733	UR80 antique	146	4159	cradle
062909	14:50	733	JSUR80	147	3761	9
062909	14:50	733	JSseeUR11	148	500	0
062909	14:50	733	UR11 foundation	149	3883	found
062909	14:50	733	JSUR11	150	4531	1
062909	14:50	733	JSseeHL11	151	500	0
062909	14:50	733	HL11 rock	152	2692	rock
062909	14:50	733	JSHL11	153	2610	6
062909	14:50	733	JSseeLH16	154	500	0
062909	14:50	733	LH16 power	155	2422	power
062909	14:50	733	JSLH16	156	2901	5
062909	14:50	733	JSseeUR18	157	500	0
062909	14:50	733	UR18 relief	158	3301	relief
062909	14:50	733	JSUR18	159	4703	8
062909	14:50	733	JSseeLH39	160	500	0
062909	14:50	733	LH39 reward	161	2510	reward
062909	14:50	733	JSLH39	162	4006	5
062909	14:50	733	JSseeUR79	163	500	0
062909	14:50	733	UR79 beetle	164	9359	beef
062909	14:50	733	JSUR79	165	4378	4
062909	14:50	733	JSseeUR102	166	500	0
062909	14:50	733	UR102 velocity	167	3665	legacy
062909	14:50	733	JSUR102	168	3662	6
062909	14:50	733	JSseeUR101	169	500	0
062909	14:50	733	UR101 beard	170	2933	beard
062909	14:50	733	JSUR101	171	4369	1
062909	14:50	733	JSseeUR72	172	500	0
062909	14:50	733	UR72 band	173	2258	band
062909	14:50	733	JSUR72	174	1642	6
062909	14:50	733	JSseeUR51	175	500	0
062909	14:50	733	UR51 cabbage	176	4341	bags
062909	14:50	733	JSUR51	177	4911	5
062909	14:50	733	JSseeHL54	178	500	0
062909	14:50	733	HL54 indian	179	3352	indian
062909	14:50	733	JSHL54	180	9748	5
062909	14:50	733	JSseeUR39	181	500	0
062909	14:50	733	UR39 faith	182	2795	faith
062909	14:50	733	JSUR39	183	3193	6
062909	14:50	733	JSseeUR49	184	500	0
062909	14:50	733	UR49 casket	185	4518	cash
062909	14:50	733	JSUR49	186	4036	7
062909	14:50	733	JSseeLH49	187	500	0
062909	14:50	733	LH49 kindness	188	4658	earlier
062909	14:50	733	JSLH49	189	4404	3
062909	14:50	733	JSseeUR10	190	500	0
062909	14:50	733	UR10 tribe	191	2431	tribe
062909	14:50	733	JSUR10	192	2867	1
062909	14:50	733	JSseeHL06	193	500	0
062909	14:50	733	HL06 egg	194	2284	egg
062909	14:50	733	JSHL06	195	4080	2
062909	14:50	733	JSseeUR71	196	500	0
062909	14:50	733	UR71 padding	197	3469	padding
062909	14:50	733	JSUR71	198	4023	5
062909	14:50	733	JSseeUR25	199	500	0
062909	14:50	733	UR25 partner	200	6116	partner
062909	14:50	733	JSUR25	201	6018	8
062909	14:50	733	JSseeUR03	202	500	0
062909	14:50	733	UR03 vehicle	203	4365	vehicle
062909	14:50	733	JSUR03	204	4658	5
062909	14:50	733	JSseeHL28	205	500	0
062909	14:50	733	HL28 bird	206	3342	bird
062909	14:50	733	JSHL28	207	3560	3
062909	14:50	733	JSseeUR100	208	500	0
062909	14:50	733	UR100 comb	209	4180	comb
062909	14:50	733	JSUR100	210	6827	7
062909	14:50	733	JSseeUR89	211	500	0
062909	14:50	733	UR89 crow	212	2694	cow
062909	14:50	733	JSUR89	213	2480	6
062909	14:50	733	JSseeUR29	214	500	0
062909	14:50	733	UR29 patrol	215	3488	patrol
062909	14:50	733	JSUR29	216	3693	3
062909	14:50	733	JSseeHL38	217	500	0
062909	14:50	733	HL38 boat	218	2225	boat
062909	14:50	733	JSHL38	219	2318	8
062909	14:50	733	JSseeLH33	220	500	0
062909	14:50	733	LH33 fable	221	2410	fable
062909	14:50	733	JSLH33	222	3433	7
062909	14:50	733	JSseeUR31	223	500	0
062909	14:50	733	UR31 diameter	224	3214	diameter
062909	14:50	733	JSUR31	225	4077	5
062909	14:50	733	JSseeHL19	226	500	0
062909	14:50	733	HL19 car	227	1879	car
062909	14:50	733	JSHL19	228	4997	4
062909	14:50	733	JSseeLH31	229	500	0
062909	14:50	733	LH31 self	230	3008	self
062909	14:50	733	JSLH31	231	2274	6
062909	14:50	733	JSseeLH13	232	500	0
062909	14:50	733	LH13 crease	233	7329	seam
062909	14:50	733	JSLH13	234	9818	8
062909	14:50	733	JSseeUR37	235	500	0
062909	14:50	733	UR37 cloth	236	3039	cloth
062909	14:50	733	JSUR37	237	2388	7
062909	14:50	733	JSseeHL27	238	500	0
062909	14:50	733	HL27 rain	239	2428	rain
062909	14:50	733	JSHL27	240	2419	5
062909	14:50	733	JSseeUR104	241	500	0
062909	14:50	733	UR104 aardvark	242	3685	word
062909	14:50	733	JSUR104	243	2221	8
062909	14:50	733	JSseeUR38	244	500	0
062909	14:50	733	UR38 energy	245	2863	energy
062909	14:50	733	JSUR38	246	3503	8
062909	14:50	733	JSseeUR90	247	500	0
062909	14:50	733	UR90 sailing	248	2836	money
062909	14:50	733	JSUR90	249	2649	6
062909	14:50	733	JSseeUR57	250	500	0
062909	14:50	733	UR57 benefit	251	2591	be
062909	14:50	733	JSUR57	252	3729	8
062909	14:50	733	JSseeUR86	253	500	0
062909	14:50	733	UR86 boulevard	254	3510	rock
062909	14:50	733	JSUR86	255	3473	3
062909	14:50	733	JSseeLH45	256	500	0
062909	14:50	733	LH45 intellect	257	4753	erg
062909	14:50	733	JSLH45	258	4543	7
062909	14:50	733	JSseeLH26	259	500	0
062909	14:50	733	LH26 center	260	2951	center
062909	14:50	733	JSLH26	261	2543	6
062909	14:50	733	JSseeUR12	262	500	0
062909	14:50	733	UR12 unicorn	263	3809	spoon
062909	14:50	733	JSUR12	264	3646	7
062909	14:50	733	JSseeUR108	265	500	0
062909	14:50	733	UR108 shield	266	5325	she
062909	14:50	733	JSUR108	267	2476	9
062909	14:50	733	JSseeUR99	268	500	0
062909	14:50	733	UR99 branch	269	4075	branch
062909	14:50	733	JSUR99	270	3612	5
062909	14:50	733	JSseeHL29	271	500	0
062909	14:50	733	HL29 ring	272	2633	ring
062909	14:50	733	JSHL29	273	3143	8
062909	14:50	733	JSseeHL26	274	500	0
062909	14:50	733	HL26 light	275	2248	light
062909	14:50	733	JSHL26	276	2810	1
062909	14:50	733	JSseeLH28	277	500	0
062909	14:50	733	LH28 vagrant	278	5804	nm
062909	14:50	733	JSLH28	279	4677	5
062909	14:50	733	JSseeHL52	280	500	0
062909	14:50	733	HL52 sand	281	2607	sand
062909	14:50	733	JSHL52	282	3369	6
062909	14:50	733	JSseeHL48	283	500	0
062909	14:50	733	HL48 airplane	284	3153	plane
062909	14:50	733	JSHL48	285	5011	8
062909	14:50	733	JSseeUR43	286	500	0
062909	14:50	733	UR43 balloon	287	3426	balloon
062909	14:50	733	JSUR43	288	4797	3
062909	14:50	733	JSseeUR93	289	500	0
062909	14:50	733	UR93 catcher	290	4827	king
062909	14:50	733	JSUR93	291	3220	8
062909	14:50	733	JSseeHL20	292	500	0
062909	14:50	733	HL20 wine	293	2649	wine
062909	14:50	733	JSHL20	294	3388	9
062909	14:50	733	JSseeHL13	295	500	0
062909	14:50	733	HL13 map	296	3829	mark
062909	14:50	733	JSHL13	297	4030	7
062909	14:50	733	JSseeHL12	298	500	0
062909	14:50	733	HL12 space	299	3106	place
062909	14:50	733	JSHL12	300	1771	7
062909	14:50	733	JSseeUR02	301	500	0
062909	14:50	733	UR02 comma	302	3090	comma
062909	14:50	733	JSUR02	303	1170	9
062909	14:50	733	JSseeUR48	304	500	0
062909	14:50	733	UR48 democracy	305	3300	elephant
062909	14:50	733	JSUR48	306	5215	6
062909	14:50	733	JSseeUR08	307	500	0
062909	14:50	733	UR08 assistant	308	3843	person
062909	14:50	733	JSUR08	309	4933	5
062909	14:50	733	JSseeUR84	310	500	0
062909	14:50	733	UR84 flag	311	4250	fire
062909	14:50	733	JSUR84	312	2361	5
062909	14:50	733	JSseeUR26	313	500	0
062909	14:50	733	UR26 eternity	314	2359	nity
062909	14:50	733	JSUR26	315	1630	8
062909	14:50	733	JSseeLH52	316	500	0
062909	14:50	733	LH52 bureau	317	8463	ber
062909	14:50	733	JSLH52	318	4072	7
062909	14:50	733	JSseeUR44	319	500	0
062909	14:50	733	UR44 rot	320	7996	diamond
062909	14:50	733	JSUR44	321	1704	7
062909	14:50	733	JSseeUR16	322	500	0
062909	14:50	733	UR16 century	323	2829	penny
062909	14:50	733	JSUR16	324	1587	8
