date	time	subject	trialcode	trialnum	latency	response
063009	15:10	743	JAseePR17	1	500	0
063009	15:10	743	PR17 emerald	2	42682	tree
063009	15:10	743	JAPR17	3	38077	3
063009	15:10	743	JAseePR27	4	500	0
063009	15:10	743	PR27 wheat	5	15148	marriage
063009	15:10	743	JAPR27	6	4777	8
063009	15:10	743	JAseePR07	7	500	0
063009	15:10	743	PR07 bog	8	5683	dog
063009	15:10	743	JAPR07	9	6706	8
063009	15:10	743	JAseePR23	10	500	0
063009	15:10	743	PR23 companion	11	7797	china
063009	15:10	743	JAPR23	12	4484	7
063009	15:10	743	JAseePR06	13	500	0
063009	15:10	743	PR06 beast	14	5093	beast
063009	15:10	743	JAPR06	15	2947	4
063009	15:10	743	JAseePR09	16	500	0
063009	15:10	743	PR09 album	17	5033	alarm
063009	15:10	743	JAPR09	18	2276	7
063009	15:10	743	JAseePR21	19	500	0
063009	15:10	743	PR21 innocence	20	5205	innocent
063009	15:10	743	JAPR21	21	5959	8
063009	15:10	743	JAseePR01	22	500	0
063009	15:10	743	PR01 cash	23	5594	change
063009	15:10	743	JAPR01	24	3882	5
063009	15:10	743	JAseePR11	25	500	0
063009	15:10	743	PR11 ounce	26	3811	dance
063009	15:10	743	JAPR11	27	5599	1
063009	15:10	743	JAseePR25	28	500	0
063009	15:10	743	PR25 saliva	29	3998	saliva
063009	15:10	743	JAPR25	30	3987	9
063009	15:10	743	JAseePR30	31	500	0
063009	15:10	743	PR30 maiden	32	7205	maiden
063009	15:10	743	JAPR30	33	5587	4
063009	15:10	743	JAseePR03	34	500	0
063009	15:10	743	PR03 acre	35	3549	corn
063009	15:10	743	JAPR03	36	1138	7
063009	15:10	743	JAseePR13	37	500	0
063009	15:10	743	PR13 ambition	38	3912	ambition
063009	15:10	743	JAPR13	39	2383	2
063009	15:10	743	JAseePR04	40	500	0
063009	15:10	743	PR04 diaper	41	3566	diaper
063009	15:10	743	JAPR04	42	13491	9
063009	15:10	743	JAseeUR53	1	500	0
063009	15:10	743	UR53 hell	2	5469	helm
063009	15:10	743	JAUR53	3	3343	6
063009	15:10	743	JAseeUR13	4	500	0
063009	15:10	743	UR13 almanac	5	4368	alligator
063009	15:10	743	JAUR13	6	4039	8
063009	15:10	743	JAseeHL07	7	500	0
063009	15:10	743	HL07 king	8	2515	king
063009	15:10	743	JAHL07	9	2231	4
063009	15:10	743	JAseeLH05	10	500	0
063009	15:10	743	LH05 chain	11	2436	chain
063009	15:10	743	JALH05	12	3474	1
063009	15:10	743	JAseeLH02	13	500	0
063009	15:10	743	LH02 harm	14	3402	death
063009	15:10	743	JALH02	15	2465	6
063009	15:10	743	JAseeUR64	16	500	0
063009	15:10	743	UR64 fist	17	5095	cat
063009	15:10	743	JAUR64	18	2301	1
063009	15:10	743	JAseeUR32	19	500	0
063009	15:10	743	UR32 navigator	20	4290	barn
063009	15:10	743	JAUR32	21	1988	8
063009	15:10	743	JAseeLH50	22	500	0
063009	15:10	743	LH50 measure	23	3478	measure
063009	15:10	743	JALH50	24	4032	6
063009	15:10	743	JAseeLH27	25	500	0
063009	15:10	743	LH27 condition	26	4450	condition
063009	15:10	743	JALH27	27	1691	2
063009	15:10	743	JAseeHL17	28	500	0
063009	15:10	743	HL17 soap	29	3690	sharp
063009	15:10	743	JAHL17	30	1719	3
063009	15:10	743	JAseeUR74	31	500	0
063009	15:10	743	UR74 suitcase	32	3894	sun
063009	15:10	743	JAUR74	33	1041	4
063009	15:10	743	JAseeHL36	34	500	0
063009	15:10	743	HL36 football	35	5011	football
063009	15:10	743	JAHL36	36	3306	1
063009	15:10	743	JAseeLH20	37	500	0
063009	15:10	743	LH20 violation	38	4797	violation
063009	15:10	743	JALH20	39	1630	8
063009	15:10	743	JAseeLH54	40	500	0
063009	15:10	743	LH54 limit	41	3033	limit
063009	15:10	743	JALH54	42	1477	4
063009	15:10	743	JAseeLH51	43	500	0
063009	15:10	743	LH51 exit	44	4899	light
063009	15:10	743	JALH51	45	1485	9
063009	15:10	743	JAseeUR35	46	500	0
063009	15:10	743	UR35 cause	47	3449	scary
063009	15:10	743	JAUR35	48	833	8
063009	15:10	743	JAseeLH19	49	500	0
063009	15:10	743	LH19 snob	50	6160	nose
063009	15:10	743	JALH19	51	2030	10
063009	15:10	743	JAseeHL51	52	500	0
063009	15:10	743	HL51 color	53	4115	color
063009	15:10	743	JAHL51	54	2790	8
063009	15:10	743	JAseeHL47	55	500	0
063009	15:10	743	HL47 horse	56	2752	horse
063009	15:10	743	JAHL47	57	2007	10
063009	15:10	743	JAseeUR45	58	500	0
063009	15:10	743	UR45 bridge	59	3408	bride
063009	15:10	743	JAUR45	60	1654	9
063009	15:10	743	JAseeUR69	61	500	0
063009	15:10	743	UR69 flashlight	62	5027	flashlight
063009	15:10	743	JAUR69	63	1605	5
063009	15:10	743	JAseeUR76	64	500	0
063009	15:10	743	UR76 dignity	65	5140	cat
063009	15:10	743	JAUR76	66	1968	5
063009	15:10	743	JAseeLH24	67	500	0
063009	15:10	743	LH24 feeling	68	4824	belief
063009	15:10	743	JALH24	69	3799	7
063009	15:10	743	JAseeHL53	70	500	0
063009	15:10	743	HL53 fish	71	2875	fish
063009	15:10	743	JAHL53	72	2197	9
063009	15:10	743	JAseeUR55	73	500	0
063009	15:10	743	UR55 bargain	74	3592	bargain
063009	15:10	743	JAUR55	75	3718	6
063009	15:10	743	JAseeUR50	76	500	0
063009	15:10	743	UR50 crane	77	3019	workout
063009	15:10	743	JAUR50	78	3100	2
063009	15:10	743	JAseeHL43	79	500	0
063009	15:10	743	HL43 money	80	2370	money
063009	15:10	743	JAHL43	81	2466	5
063009	15:10	743	JAseeLH11	82	500	0
063009	15:10	743	LH11 cancer	83	4275	cancer
063009	15:10	743	JALH11	84	3493	4
063009	15:10	743	JAseeUR77	85	500	0
063009	15:10	743	UR77 uncle	86	2727	uncle
063009	15:10	743	JAUR77	87	4921	3
063009	15:10	743	JAseeUR27	88	500	0
063009	15:10	743	UR27 consequence	89	3349	cat
063009	15:10	743	JAUR27	90	2869	5
063009	15:10	743	JAseeUR68	91	500	0
063009	15:10	743	UR68 fatigue	92	3039	fatigue
063009	15:10	743	JAUR68	93	5871	7
063009	15:10	743	JAseeUR22	94	500	0
063009	15:10	743	UR22 thesaurus	95	2686	score
063009	15:10	743	JAUR22	96	4128	5
063009	15:10	743	JAseeUR07	97	500	0
063009	15:10	743	UR07 gathering	98	2559	blood
063009	15:10	743	JAUR07	99	2499	9
063009	15:10	743	JAseeUR95	100	500	0
063009	15:10	743	UR95 fool	101	3411	foot
063009	15:10	743	JAUR95	102	3390	3
063009	15:10	743	JAseeUR63	103	500	0
063009	15:10	743	UR63 alley	104	2899	alley
063009	15:10	743	JAUR63	105	3183	8
063009	15:10	743	JAseeUR06	106	500	0
063009	15:10	743	UR06 cello	107	3600	weather
063009	15:10	743	JAUR06	108	2869	6
063009	15:10	743	JAseeHL34	109	500	0
063009	15:10	743	HL34 hunger	110	2310	hunger
063009	15:10	743	JAHL34	111	2662	1
063009	15:10	743	JAseeUR66	112	500	0
063009	15:10	743	UR66 chief	113	2339	chef
063009	15:10	743	JAUR66	114	3727	5
063009	15:10	743	JAseeUR67	115	500	0
063009	15:10	743	UR67 producer	116	5663	producer
063009	15:10	743	JAUR67	117	3934	2
063009	15:10	743	JAseeUR36	118	500	0
063009	15:10	743	UR36 denim	119	2903	death
063009	15:10	743	JAUR36	120	4574	3
063009	15:10	743	JAseeUR34	121	500	0
063009	15:10	743	UR34 charity	122	3058	charity
063009	15:10	743	JAUR34	123	3071	6
063009	15:10	743	JAseeLH14	124	500	0
063009	15:10	743	LH14 note	125	1975	hotel
063009	15:10	743	JALH14	126	4387	1
063009	15:10	743	JAseeHL50	127	500	0
063009	15:10	743	HL50 doctor	128	2470	doctor
063009	15:10	743	JAHL50	129	6464	9
063009	15:10	743	JAseeLH03	130	500	0
063009	15:10	743	LH03 yard	131	2702	yard
063009	15:10	743	JALH03	132	5262	5
063009	15:10	743	JAseeLH22	133	500	0
063009	15:10	743	LH22 crowd	134	2731	crowd
063009	15:10	743	JALH22	135	3379	7
063009	15:10	743	JAseeUR46	136	500	0
063009	15:10	743	UR46 content	137	3479	liquid
063009	15:10	743	JAUR46	138	3667	6
063009	15:10	743	JAseeUR75	139	500	0
063009	15:10	743	UR75 awe	140	3128	death
063009	15:10	743	JAUR75	141	2892	2
063009	15:10	743	JAseeUR78	142	500	0
063009	15:10	743	UR78 blender	143	4313	blender
063009	15:10	743	JAUR78	144	8542	10
063009	15:10	743	JAseeHL39	145	500	0
063009	15:10	743	HL39 book	146	2297	book
063009	15:10	743	JAHL39	147	4924	8
063009	15:10	743	JAseeUR62	148	500	0
063009	15:10	743	UR62 chemistry	149	5228	chemistry
063009	15:10	743	JAUR62	150	5015	3
063009	15:10	743	JAseeLH04	151	500	0
063009	15:10	743	LH04 grade	152	2459	grade
063009	15:10	743	JALH04	153	3490	6
063009	15:10	743	JAseeHL03	154	500	0
063009	15:10	743	HL03 cigarette	155	3567	cigarette
063009	15:10	743	JAHL03	156	2442	9
063009	15:10	743	JAseeUR20	157	500	0
063009	15:10	743	UR20 climax	158	4948	climax
063009	15:10	743	JAUR20	159	3083	5
063009	15:10	743	JAseeLH23	160	500	0
063009	15:10	743	LH23 possibility	161	4644	possibility
063009	15:10	743	JALH23	162	3233	8
063009	15:10	743	JAseeHL09	163	500	0
063009	15:10	743	HL09 chalk	164	2605	chalk
063009	15:10	743	JAHL09	165	2583	9
063009	15:10	743	JAseeLH01	166	500	0
063009	15:10	743	LH01 brain	167	3419	brain
063009	15:10	743	JALH01	168	3984	8
063009	15:10	743	JAseeHL42	169	500	0
063009	15:10	743	HL42 pie	170	2481	pie
063009	15:10	743	JAHL42	171	6391	6
063009	15:10	743	JAseeLH43	172	500	0
063009	15:10	743	LH43 noise	173	2570	noise
063009	15:10	743	JALH43	174	3553	3
063009	15:10	743	JAseeLH30	175	500	0
063009	15:10	743	LH30 assignment	176	3775	assignment
063009	15:10	743	JALH30	177	3532	6
063009	15:10	743	JAseeLH53	178	500	0
063009	15:10	743	LH53 core	179	3110	score
063009	15:10	743	JALH53	180	3115	2
063009	15:10	743	JAseeUR47	181	500	0
063009	15:10	743	UR47 chimpanzee	182	10678	chimpanzee
063009	15:10	743	JAUR47	183	4091	6
063009	15:10	743	JAseeUR42	184	500	0
063009	15:10	743	UR42 sergeant	185	2732	servant
063009	15:10	743	JAUR42	186	3440	8
063009	15:10	743	JAseeUR01	187	500	0
063009	15:10	743	UR01 file	188	2649	file
063009	15:10	743	JAUR01	189	2638	6
063009	15:10	743	JAseeUR87	190	500	0
063009	15:10	743	UR87 duty	191	2099	duty
063009	15:10	743	JAUR87	192	3674	8
063009	15:10	743	JAseeHL24	193	500	0
063009	15:10	743	HL24 eye	194	4930	fly
063009	15:10	743	JAHL24	195	6815	10
063009	15:10	743	JAseeUR58	196	500	0
063009	15:10	743	UR58 answer	197	3687	injury
063009	15:10	743	JAUR58	198	2974	8
063009	15:10	743	JAseeHL41	199	500	0
063009	15:10	743	HL41 hand	200	2122	hand
063009	15:10	743	JAHL41	201	3685	4
063009	15:10	743	JAseeUR54	202	500	0
063009	15:10	743	UR54 steam	203	4507	stream
063009	15:10	743	JAUR54	204	2678	5
063009	15:10	743	JAseeUR82	205	500	0
063009	15:10	743	UR82 campus	206	6455	campus
063009	15:10	743	JAUR82	207	2405	9
063009	15:10	743	JAseeHL49	208	500	0
063009	15:10	743	HL49 spice	209	2199	spice
063009	15:10	743	JAHL49	210	3908	1
063009	15:10	743	JAseeUR103	211	500	0
063009	15:10	743	UR103 hula	212	2890	laugh
063009	15:10	743	JAUR103	213	2791	8
063009	15:10	743	JAseeUR70	214	500	0
063009	15:10	743	UR70 pajamas	215	3645	pajama
063009	15:10	743	JAUR70	216	3471	9
063009	15:10	743	JAseeHL23	217	500	0
063009	15:10	743	HL23 baby	218	2502	baby
063009	15:10	743	JAHL23	219	2654	7
063009	15:10	743	JAseeLH09	220	500	0
063009	15:10	743	LH09 piece	221	2395	piece
063009	15:10	743	JALH09	222	2946	2
063009	15:10	743	JAseeHL05	223	500	0
063009	15:10	743	HL05 mountain	224	2992	mountain
063009	15:10	743	JAHL05	225	3128	9
063009	15:10	743	JAseeHL25	226	500	0
063009	15:10	743	HL25 cut	227	1665	cut
063009	15:10	743	JAHL25	228	2826	8
063009	15:10	743	JAseeHL32	229	500	0
063009	15:10	743	HL32 television	230	4446	television
063009	15:10	743	JAHL32	231	3030	1
063009	15:10	743	JAseeLH38	232	500	0
063009	15:10	743	LH38 paint	233	2259	pain
063009	15:10	743	JALH38	234	3481	10
063009	15:10	743	JAseeUR52	235	500	0
063009	15:10	743	UR52 knight	236	2538	knight
063009	15:10	743	JAUR52	237	3103	9
063009	15:10	743	JAseePR28	238	500	0
063009	15:10	743	PR28 challenge	239	2848	dragon
063009	15:10	743	JAPR28	240	3807	8
063009	15:10	743	JAseeLH25	241	500	0
063009	15:10	743	LH25 track	242	3071	track
063009	15:10	743	JALH25	243	2273	9
063009	15:10	743	JAseeUR24	244	500	0
063009	15:10	743	UR24 kid	245	2861	kid
063009	15:10	743	JAUR24	246	5001	3
063009	15:10	743	JAseeUR17	247	500	0
063009	15:10	743	UR17 trance	248	2803	tower
063009	15:10	743	JAUR17	249	5752	10
063009	15:10	743	JAseeHL10	250	500	0
063009	15:10	743	HL10 cow	251	1584	cow
063009	15:10	743	JAHL10	252	4584	9
063009	15:10	743	JAseeUR30	253	500	0
063009	15:10	743	UR30 lover	254	3112	flower
063009	15:10	743	JAUR30	255	6789	7
063009	15:10	743	JAseeUR14	256	500	0
063009	15:10	743	UR14 fudge	257	7930	jail
063009	15:10	743	JAUR14	258	2554	9
063009	15:10	743	JAseeUR60	259	500	0
063009	15:10	743	UR60 plaque	260	3113	plague
063009	15:10	743	JAUR60	261	5278	5
063009	15:10	743	JAseeHL21	262	500	0
063009	15:10	743	HL21 empire	263	4709	empire
063009	15:10	743	JAHL21	264	3386	10
063009	15:10	743	JAseeHL45	265	500	0
063009	15:10	743	HL45 words	266	2216	words
063009	15:10	743	JAHL45	267	2145	8
063009	15:10	743	JAseeUR107	268	500	0
063009	15:10	743	UR107 cocaine	269	12856	spider
063009	15:10	743	JAUR107	270	3505	10
063009	15:10	743	JAseeLH46	271	500	0
063009	15:10	743	LH46 submarine	272	3639	submarine
063009	15:10	743	JALH46	273	2396	5
063009	15:10	743	JAseeUR85	274	500	0
063009	15:10	743	UR85 stroke	275	3254	stroke
063009	15:10	743	JAUR85	276	6331	4
063009	15:10	743	JAseeUR28	277	500	0
063009	15:10	743	UR28 bang	278	3747	steal
063009	15:10	743	JAUR28	279	4934	7
063009	15:10	743	JAseeUR98	280	500	0
063009	15:10	743	UR98 latch	281	5759	volcano
063009	15:10	743	JAUR98	282	5195	4
063009	15:10	743	JAseeUR105	283	500	0
063009	15:10	743	UR105 curtain	284	3941	curtain
063009	15:10	743	JAUR105	285	5024	1
063009	15:10	743	JAseeUR65	286	500	0
063009	15:10	743	UR65 checkers	287	3475	checkers
063009	15:10	743	JAUR65	288	3705	9
063009	15:10	743	JAseeUR106	289	500	0
063009	15:10	743	UR106 eagle	290	2912	eagle
063009	15:10	743	JAUR106	291	4458	10
063009	15:10	743	JAseeLH17	292	500	0
063009	15:10	743	LH17 life	293	1817	life
063009	15:10	743	JALH17	294	4011	8
063009	15:10	743	JAseeUR04	295	500	0
063009	15:10	743	UR04 marsh	296	3040	march
063009	15:10	743	JAUR04	297	3084	6
063009	15:10	743	JAseeHL31	298	500	0
063009	15:10	743	HL31 war	299	1692	war
063009	15:10	743	JAHL31	300	9986	6
063009	15:10	743	JAseeLH07	301	500	0
063009	15:10	743	LH07 rear	302	5304	ear
063009	15:10	743	JALH07	303	2942	7
063009	15:10	743	JAseeHL33	304	500	0
063009	15:10	743	HL33 joke	305	1919	joke
063009	15:10	743	JAHL33	306	2057	3
063009	15:10	743	JAseeHL01	307	500	0
063009	15:10	743	HL01 elephant	308	7404	elephant
063009	15:10	743	JAHL01	309	4968	7
063009	15:10	743	JAseeLH37	310	500	0
063009	15:10	743	LH37 pad	311	2447	pad
063009	15:10	743	JALH37	312	3674	6
063009	15:10	743	JAseeHL14	313	500	0
063009	15:10	743	HL14 milk	314	2325	milk
063009	15:10	743	JAHL14	315	3248	9
063009	15:10	743	JAseeUR96	316	500	0
063009	15:10	743	UR96 dessert	317	3557	desert
063009	15:10	743	JAUR96	318	6516	9
063009	15:10	743	JAseeLH32	319	500	0
063009	15:10	743	LH32 capacity	320	6023	capable
063009	15:10	743	JALH32	321	3362	2
063009	15:10	743	JAseeUR59	322	500	0
063009	15:10	743	UR59 copper	323	3246	copy
063009	15:10	743	JAUR59	324	3842	9
063009	15:10	743	JAseeUR21	325	500	0
063009	15:10	743	UR21 ore	326	2943	tree
063009	15:10	743	JAUR21	327	4222	10
063009	15:10	743	JSseePR26	1	500	0
063009	15:10	743	PR26 colonel	2	5872	smell
063009	15:10	743	JSPR26	3	5027	5
063009	15:10	743	JSseePR24	4	500	0
063009	15:10	743	PR24 pest	5	4842	cat
063009	15:10	743	JSPR24	6	4563	3
063009	15:10	743	JSseePR08	7	500	0
063009	15:10	743	PR08 beef	8	3483	sting
063009	15:10	743	JSPR08	9	2306	8
063009	15:10	743	JSseePR05	10	500	0
063009	15:10	743	PR05 calf	11	4483	plan
063009	15:10	743	JSPR05	12	2507	7
063009	15:10	743	JSseePR14	13	500	0
063009	15:10	743	PR14 religion	14	2726	religion
063009	15:10	743	JSPR14	15	1210	6
063009	15:10	743	JSseePR19	16	500	0
063009	15:10	743	PR19 void	17	2712	cat
063009	15:10	743	JSPR19	18	3432	4
063009	15:10	743	JSseePR12	19	500	0
063009	15:10	743	PR12 royalty	20	6611	cat
063009	15:10	743	JSPR12	21	6612	7
063009	15:10	743	JSseePR02	22	500	0
063009	15:10	743	PR02 wrinkle	23	6367	wrinkle
063009	15:10	743	JSPR02	24	6136	5
063009	15:10	743	JSseePR10	25	500	0
063009	15:10	743	PR10 camel	26	2924	camel
063009	15:10	743	JSPR10	27	2946	5
063009	15:10	743	JSseePR15	28	500	0
063009	15:10	743	PR15 depletion	29	2797	smell
063009	15:10	743	JSPR15	30	4209	4
063009	15:10	743	JSseePR20	31	500	0
063009	15:10	743	PR20 advertisement	32	3571	advertisement
063009	15:10	743	JSPR20	33	3734	5
063009	15:10	743	JSseePR29	34	500	0
063009	15:10	743	PR29 mermaid	35	6568	mermaid
063009	15:10	743	JSPR29	36	10422	7
063009	15:10	743	JSseePR16	37	500	0
063009	15:10	743	PR16 compulsion	38	4854	compulsion
063009	15:10	743	JSPR16	39	4930	5
063009	15:10	743	JSseePR22	40	500	0
063009	15:10	743	PR22 ass	41	3427	cat
063009	15:10	743	JSPR22	42	4444	8
063009	15:10	743	JSseePR18	43	500	0
063009	15:10	743	PR18 clorox	44	5102	clorox
063009	15:10	743	JSPR18	45	2591	3
063009	15:10	743	JSseeUR33	1	500	0
063009	15:10	743	UR33 horror	2	4452	horror
063009	15:10	743	JSUR33	3	2416	6
063009	15:10	743	JSseeUR41	4	500	0
063009	15:10	743	UR41 chime	5	2662	frozen
063009	15:10	743	JSUR41	6	2115	7
063009	15:10	743	JSseeLH06	7	500	0
063009	15:10	743	LH06 element	8	5058	element
063009	15:10	743	JSLH06	9	3561	5
063009	15:10	743	JSseeHL40	10	500	0
063009	15:10	743	HL40 temperature	11	6306	temperature
063009	15:10	743	JSHL40	12	2077	8
063009	15:10	743	JSseeLH10	13	500	0
063009	15:10	743	LH10 care	14	1904	care
063009	15:10	743	JSLH10	15	2711	6
063009	15:10	743	JSseeHL16	16	500	0
063009	15:10	743	HL16 broom	17	2850	broom
063009	15:10	743	JSHL16	18	3425	6
063009	15:10	743	JSseeLH42	19	500	0
063009	15:10	743	LH42 thought	20	2581	thought
063009	15:10	743	JSLH42	21	2021	4
063009	15:10	743	JSseeLH44	22	500	0
063009	15:10	743	LH44 vessel	23	2042	vessel
063009	15:10	743	JSLH44	24	1972	7
063009	15:10	743	JSseeLH41	25	500	0
063009	15:10	743	LH41 girl	26	2193	girl
063009	15:10	743	JSLH41	27	1194	7
063009	15:10	743	JSseeHL08	28	500	0
063009	15:10	743	HL08 math	29	2591	math
063009	15:10	743	JSHL08	30	1963	8
063009	15:10	743	JSseeHL30	31	500	0
063009	15:10	743	HL30 air	32	2168	cat
063009	15:10	743	JSHL30	33	1939	6
063009	15:10	743	JSseeLH34	34	500	0
063009	15:10	743	LH34 panel	35	2326	panel
063009	15:10	743	JSLH34	36	2153	8
063009	15:10	743	JSseeHL37	37	500	0
063009	15:10	743	HL37 thread	38	3253	thread
063009	15:10	743	JSHL37	39	2295	8
063009	15:10	743	JSseeUR23	40	500	0
063009	15:10	743	UR23 abundance	41	2107	cat
063009	15:10	743	JSUR23	42	3882	7
063009	15:10	743	JSseeUR94	43	500	0
063009	15:10	743	UR94 bristle	44	3653	bristle
063009	15:10	743	JSUR94	45	1912	6
063009	15:10	743	JSseeLH29	46	500	0
063009	15:10	743	LH29 closet	47	3439	closet
063009	15:10	743	JSLH29	48	1996	8
063009	15:10	743	JSseeUR97	49	500	0
063009	15:10	743	UR97 banner	50	1953	food
063009	15:10	743	JSUR97	51	2385	7
063009	15:10	743	JSseeUR73	52	500	0
063009	15:10	743	UR73 kite	53	1940	knife
063009	15:10	743	JSUR73	54	3491	8
063009	15:10	743	JSseeHL15	55	500	0
063009	15:10	743	HL15 bomb	56	2541	bomb
063009	15:10	743	JSHL15	57	2506	6
063009	15:10	743	JSseeUR05	58	500	0
063009	15:10	743	UR05 lease	59	2093	lease
063009	15:10	743	JSUR05	60	2448	7
063009	15:10	743	JSseeLH40	61	500	0
063009	15:10	743	LH40 field	62	3061	center
063009	15:10	743	JSLH40	63	2996	5
063009	15:10	743	JSseeUR09	64	500	0
063009	15:10	743	UR09 education	65	7007	education
063009	15:10	743	JSUR09	66	2373	7
063009	15:10	743	JSseeHL18	67	500	0
063009	15:10	743	HL18 paper	68	3699	paper
063009	15:10	743	JSHL18	69	3184	8
063009	15:10	743	JSseeUR61	70	500	0
063009	15:10	743	UR61 suicide	71	4792	suicide
063009	15:10	743	JSUR61	72	3659	3
063009	15:10	743	JSseeLH18	73	500	0
063009	15:10	743	LH18 edge	74	2294	edge
063009	15:10	743	JSLH18	75	2374	6
063009	15:10	743	JSseeHL04	76	500	0
063009	15:10	743	HL04 beer	77	3865	sad
063009	15:10	743	JSHL04	78	1942	7
063009	15:10	743	JSseeUR19	79	500	0
063009	15:10	743	UR19 bison	80	2019	bison
063009	15:10	743	JSUR19	81	5242	4
063009	15:10	743	JSseeLH12	82	500	0
063009	15:10	743	LH12 addition	83	3634	addiction
063009	15:10	743	JSLH12	84	3740	7
063009	15:10	743	JSseeHL02	85	500	0
063009	15:10	743	HL02 flower	86	3351	flower
063009	15:10	743	JSHL02	87	3525	6
063009	15:10	743	JSseeLH36	88	500	0
063009	15:10	743	LH36 gang	89	3720	bang
063009	15:10	743	JSLH36	90	3874	4
063009	15:10	743	JSseeLH48	91	500	0
063009	15:10	743	LH48 outcome	92	2644	outcome
063009	15:10	743	JSLH48	93	13868	5
063009	15:10	743	JSseeLH15	94	500	0
063009	15:10	743	LH15 blessing	95	3974	blessing
063009	15:10	743	JSLH15	96	3658	7
063009	15:10	743	JSseeHL35	97	500	0
063009	15:10	743	HL35 cake	98	3535	cake
063009	15:10	743	JSHL35	99	3038	7
063009	15:10	743	JSseeUR40	100	500	0
063009	15:10	743	UR40 dancer	101	3775	dirty
063009	15:10	743	JSUR40	102	3382	7
063009	15:10	743	JSseeUR88	103	500	0
063009	15:10	743	UR88 circus	104	3675	circus
063009	15:10	743	JSUR88	105	4600	3
063009	15:10	743	JSseeUR81	106	500	0
063009	15:10	743	UR81 acid	107	4552	cat
063009	15:10	743	JSUR81	108	4029	5
063009	15:10	743	JSseeUR92	109	500	0
063009	15:10	743	UR92 dart	110	3805	scared
063009	15:10	743	JSUR92	111	5872	5
063009	15:10	743	JSseeHL44	112	500	0
063009	15:10	743	HL44 baseball	113	4519	baseball
063009	15:10	743	JSHL44	114	3604	8
063009	15:10	743	JSseeHL46	115	500	0
063009	15:10	743	HL46 butter	116	2527	butter
063009	15:10	743	JSHL46	117	1376	7
063009	15:10	743	JSseeUR15	118	500	0
063009	15:10	743	UR15 compass	119	3792	compass
063009	15:10	743	JSUR15	120	12983	6
063009	15:10	743	JSseeLH35	121	500	0
063009	15:10	743	LH35 shelter	122	4360	shelter
063009	15:10	743	JSLH35	123	2631	7
063009	15:10	743	JSseeUR91	124	500	0
063009	15:10	743	UR91 anteater	125	4503	anteater
063009	15:10	743	JSUR91	126	3227	6
063009	15:10	743	JSseeLH08	127	500	0
063009	15:10	743	LH08 house	128	3028	cat
063009	15:10	743	JSLH08	129	4793	8
063009	15:10	743	JSseeLH21	130	500	0
063009	15:10	743	LH21 monument	131	3556	moment
063009	15:10	743	JSLH21	132	1552	8
063009	15:10	743	JSseeUR83	133	500	0
063009	15:10	743	UR83 lesson	134	5703	lesson
063009	15:10	743	JSUR83	135	3223	6
063009	15:10	743	JSseeHL22	136	500	0
063009	15:10	743	HL22 problem	137	4436	problem
063009	15:10	743	JSHL22	138	2158	6
063009	15:10	743	JSseeLH47	139	500	0
063009	15:10	743	LH47 detergent	140	3205	detergent
063009	15:10	743	JSLH47	141	2631	4
063009	15:10	743	JSseeUR56	142	500	0
063009	15:10	743	UR56 antler	143	4926	talk
063009	15:10	743	JSUR56	144	4074	7
063009	15:10	743	JSseeUR80	145	500	0
063009	15:10	743	UR80 antique	146	3971	fatigue
063009	15:10	743	JSUR80	147	2356	7
063009	15:10	743	JSseeUR11	148	500	0
063009	15:10	743	UR11 foundation	149	4175	foundation
063009	15:10	743	JSUR11	150	3913	6
063009	15:10	743	JSseeHL11	151	500	0
063009	15:10	743	HL11 rock	152	4574	rock
063009	15:10	743	JSHL11	153	2130	7
063009	15:10	743	JSseeLH16	154	500	0
063009	15:10	743	LH16 power	155	2850	power
063009	15:10	743	JSLH16	156	2831	5
063009	15:10	743	JSseeUR18	157	500	0
063009	15:10	743	UR18 relief	158	3169	grief
063009	15:10	743	JSUR18	159	4215	3
063009	15:10	743	JSseeLH39	160	500	0
063009	15:10	743	LH39 reward	161	2804	level
063009	15:10	743	JSLH39	162	2960	8
063009	15:10	743	JSseeUR79	163	500	0
063009	15:10	743	UR79 beetle	164	3911	beetle
063009	15:10	743	JSUR79	165	6835	6
063009	15:10	743	JSseeUR102	166	500	0
063009	15:10	743	UR102 velocity	167	4109	velocity
063009	15:10	743	JSUR102	168	2724	6
063009	15:10	743	JSseeUR101	169	500	0
063009	15:10	743	UR101 beard	170	3280	sweet
063009	15:10	743	JSUR101	171	4208	6
063009	15:10	743	JSseeUR72	172	500	0
063009	15:10	743	UR72 band	173	4984	band
063009	15:10	743	JSUR72	174	3012	8
063009	15:10	743	JSseeUR51	175	500	0
063009	15:10	743	UR51 cabbage	176	4790	carriage
063009	15:10	743	JSUR51	177	3027	4
063009	15:10	743	JSseeHL54	178	500	0
063009	15:10	743	HL54 indian	179	3777	indian
063009	15:10	743	JSHL54	180	3147	3
063009	15:10	743	JSseeUR39	181	500	0
063009	15:10	743	UR39 faith	182	2505	faith
063009	15:10	743	JSUR39	183	2100	8
063009	15:10	743	JSseeUR49	184	500	0
063009	15:10	743	UR49 casket	185	3763	control
063009	15:10	743	JSUR49	186	2146	7
063009	15:10	743	JSseeLH49	187	500	0
063009	15:10	743	LH49 kindness	188	3879	kindness
063009	15:10	743	JSLH49	189	2957	4
063009	15:10	743	JSseeUR10	190	500	0
063009	15:10	743	UR10 tribe	191	2512	tribe
063009	15:10	743	JSUR10	192	5295	6
063009	15:10	743	JSseeHL06	193	500	0
063009	15:10	743	HL06 egg	194	2001	egg
063009	15:10	743	JSHL06	195	2654	3
063009	15:10	743	JSseeUR71	196	500	0
063009	15:10	743	UR71 padding	197	6075	pudding
063009	15:10	743	JSUR71	198	2137	8
063009	15:10	743	JSseeUR25	199	500	0
063009	15:10	743	UR25 partner	200	2978	partner
063009	15:10	743	JSUR25	201	5303	4
063009	15:10	743	JSseeUR03	202	500	0
063009	15:10	743	UR03 vehicle	203	5615	vehicle
063009	15:10	743	JSUR03	204	2317	5
063009	15:10	743	JSseeHL28	205	500	0
063009	15:10	743	HL28 bird	206	5635	bird
063009	15:10	743	JSHL28	207	1923	5
063009	15:10	743	JSseeUR100	208	500	0
063009	15:10	743	UR100 comb	209	4189	code
063009	15:10	743	JSUR100	210	2088	7
063009	15:10	743	JSseeUR89	211	500	0
063009	15:10	743	UR89 crow	212	2041	crow
063009	15:10	743	JSUR89	213	2794	7
063009	15:10	743	JSseeUR29	214	500	0
063009	15:10	743	UR29 patrol	215	4268	patrol
063009	15:10	743	JSUR29	216	7690	7
063009	15:10	743	JSseeHL38	217	500	0
063009	15:10	743	HL38 boat	218	1858	boat
063009	15:10	743	JSHL38	219	1721	7
063009	15:10	743	JSseeLH33	220	500	0
063009	15:10	743	LH33 fable	221	2114	fable
063009	15:10	743	JSLH33	222	1721	6
063009	15:10	743	JSseeUR31	223	500	0
063009	15:10	743	UR31 diameter	224	2534	diameter
063009	15:10	743	JSUR31	225	2328	3
063009	15:10	743	JSseeHL19	226	500	0
063009	15:10	743	HL19 car	227	1892	car
063009	15:10	743	JSHL19	228	3264	4
063009	15:10	743	JSseeLH31	229	500	0
063009	15:10	743	LH31 self	230	1777	self
063009	15:10	743	JSLH31	231	1850	3
063009	15:10	743	JSseeLH13	232	500	0
063009	15:10	743	LH13 crease	233	4065	decrease
063009	15:10	743	JSLH13	234	3037	6
063009	15:10	743	JSseeUR37	235	500	0
063009	15:10	743	UR37 cloth	236	2084	cloth
063009	15:10	743	JSUR37	237	2427	5
063009	15:10	743	JSseeHL27	238	500	0
063009	15:10	743	HL27 rain	239	1903	rain
063009	15:10	743	JSHL27	240	1125	4
063009	15:10	743	JSseeUR104	241	500	0
063009	15:10	743	UR104 aardvark	242	1854	word
063009	15:10	743	JSUR104	243	2797	4
063009	15:10	743	JSseeUR38	244	500	0
063009	15:10	743	UR38 energy	245	2862	energy
063009	15:10	743	JSUR38	246	1425	6
063009	15:10	743	JSseeUR90	247	500	0
063009	15:10	743	UR90 sailing	248	4391	sailing
063009	15:10	743	JSUR90	249	1687	7
063009	15:10	743	JSseeUR57	250	500	0
063009	15:10	743	UR57 benefit	251	3033	benefit
063009	15:10	743	JSUR57	252	1376	4
063009	15:10	743	JSseeUR86	253	500	0
063009	15:10	743	UR86 boulevard	254	3670	boulevard
063009	15:10	743	JSUR86	255	5566	4
063009	15:10	743	JSseeLH45	256	500	0
063009	15:10	743	LH45 intellect	257	3196	control
063009	15:10	743	JSLH45	258	3134	7
063009	15:10	743	JSseeLH26	259	500	0
063009	15:10	743	LH26 center	260	3652	center
063009	15:10	743	JSLH26	261	1775	5
063009	15:10	743	JSseeUR12	262	500	0
063009	15:10	743	UR12 unicorn	263	3618	unicorn
063009	15:10	743	JSUR12	264	2062	8
063009	15:10	743	JSseeUR108	265	500	0
063009	15:10	743	UR108 shield	266	3365	shield
063009	15:10	743	JSUR108	267	1542	8
063009	15:10	743	JSseeUR99	268	500	0
063009	15:10	743	UR99 branch	269	3292	cereal
063009	15:10	743	JSUR99	270	1826	5
063009	15:10	743	JSseeHL29	271	500	0
063009	15:10	743	HL29 ring	272	1836	ring
063009	15:10	743	JSHL29	273	2578	8
063009	15:10	743	JSseeHL26	274	500	0
063009	15:10	743	HL26 light	275	1929	light
063009	15:10	743	JSHL26	276	1593	5
063009	15:10	743	JSseeLH28	277	500	0
063009	15:10	743	LH28 vagrant	278	3807	vulgar
063009	15:10	743	JSLH28	279	1641	8
063009	15:10	743	JSseeHL52	280	500	0
063009	15:10	743	HL52 sand	281	3331	beach
063009	15:10	743	JSHL52	282	2494	7
063009	15:10	743	JSseeHL48	283	500	0
063009	15:10	743	HL48 airplane	284	4099	airplane
063009	15:10	743	JSHL48	285	2452	7
063009	15:10	743	JSseeUR43	286	500	0
063009	15:10	743	UR43 balloon	287	3530	balloon
063009	15:10	743	JSUR43	288	3424	6
063009	15:10	743	JSseeUR93	289	500	0
063009	15:10	743	UR93 catcher	290	2336	king
063009	15:10	743	JSUR93	291	2472	5
063009	15:10	743	JSseeHL20	292	500	0
063009	15:10	743	HL20 wine	293	1660	wine
063009	15:10	743	JSHL20	294	712	8
063009	15:10	743	JSseeHL13	295	500	0
063009	15:10	743	HL13 map	296	2731	map
063009	15:10	743	JSHL13	297	714	6
063009	15:10	743	JSseeHL12	298	500	0
063009	15:10	743	HL12 space	299	2853	space
063009	15:10	743	JSHL12	300	1779	7
063009	15:10	743	JSseeUR02	301	500	0
063009	15:10	743	UR02 comma	302	3566	compass
063009	15:10	743	JSUR02	303	1969	7
063009	15:10	743	JSseeUR48	304	500	0
063009	15:10	743	UR48 democracy	305	4753	democrat
063009	15:10	743	JSUR48	306	3960	8
063009	15:10	743	JSseeUR08	307	500	0
063009	15:10	743	UR08 assistant	308	2909	cat
063009	15:10	743	JSUR08	309	1587	6
063009	15:10	743	JSseeUR84	310	500	0
063009	15:10	743	UR84 flag	311	7854	fire
063009	15:10	743	JSUR84	312	951	7
063009	15:10	743	JSseeUR26	313	500	0
063009	15:10	743	UR26 eternity	314	3025	eternity
063009	15:10	743	JSUR26	315	2178	5
063009	15:10	743	JSseeLH52	316	500	0
063009	15:10	743	LH52 bureau	317	4315	bureau
063009	15:10	743	JSLH52	318	2537	6
063009	15:10	743	JSseeUR44	319	500	0
063009	15:10	743	UR44 rot	320	2838	carat
063009	15:10	743	JSUR44	321	1978	7
063009	15:10	743	JSseeUR16	322	500	0
063009	15:10	743	UR16 century	323	3882	century
063009	15:10	743	JSUR16	324	1839	7
