date	time	subject	trialcode	trialnum	latency	response
060209	11:51	700	JSseePR17	1	500	0
060209	11:51	700	PR17 emerald	2	29765	element
060209	11:51	700	JSPR17	3	21578	8
060209	11:51	700	JSseePR27	4	500	0
060209	11:51	700	PR27 wheat	5	24346	child
060209	11:51	700	JSPR27	6	13492	7
060209	11:51	700	JSseePR07	7	500	0
060209	11:51	700	PR07 bog	8	7325	blue
060209	11:51	700	JSPR07	9	15759	5
060209	11:51	700	JSseePR23	10	500	0
060209	11:51	700	PR23 companion	11	7509	control
060209	11:51	700	JSPR23	12	5006	7
060209	11:51	700	JSseePR06	13	500	0
060209	11:51	700	PR06 beast	14	10874	beast
060209	11:51	700	JSPR06	15	7087	6
060209	11:51	700	JSseePR09	16	500	0
060209	11:51	700	PR09 album	17	4968	album
060209	11:51	700	JSPR09	18	5752	7
060209	11:51	700	JSseePR21	19	500	0
060209	11:51	700	PR21 innocence	20	7819	correct
060209	11:51	700	JSPR21	21	8319	8
060209	11:51	700	JSseePR01	22	500	0
060209	11:51	700	PR01 cash	23	4050	cash
060209	11:51	700	JSPR01	24	10426	6
060209	11:51	700	JSseePR11	25	500	0
060209	11:51	700	PR11 ounce	26	5297	ocean
060209	11:51	700	JSPR11	27	6050	6
060209	11:51	700	JSseePR25	28	500	0
060209	11:51	700	PR25 saliva	29	7417	saline
060209	11:51	700	JSPR25	30	5150	9
060209	11:51	700	JSseePR30	31	500	0
060209	11:51	700	PR30 maiden	32	28211	maiden
060209	11:51	700	JSPR30	33	7452	5
060209	11:51	700	JSseePR03	34	500	0
060209	11:51	700	PR03 acre	35	6685	once
060209	11:51	700	JSPR03	36	8170	6
060209	11:51	700	JSseePR13	37	500	0
060209	11:51	700	PR13 ambition	38	8244	album
060209	11:51	700	JSPR13	39	5661	5
060209	11:51	700	JSseePR04	40	500	0
060209	11:51	700	PR04 diaper	41	5348	diaper
060209	11:51	700	JSPR04	42	4564	8
060209	11:51	700	JSseePR28	43	500	0
060209	11:51	700	PR28 challenge	44	5547	challenge
060209	11:51	700	JSPR28	45	5322	5
060209	11:51	700	JSseeUR42	1	500	0
060209	11:51	700	UR42 sergeant	2	6297	servant
060209	11:51	700	JSUR42	3	7311	8
060209	11:51	700	JSseeUR52	4	500	0
060209	11:51	700	UR52 knight	5	5142	knight
060209	11:51	700	JSUR52	6	6350	7
060209	11:51	700	JSseeLH01	7	500	0
060209	11:51	700	LH01 brain	8	3663	brain
060209	11:51	700	JSLH01	9	4272	7
060209	11:51	700	JSseeHL45	10	500	0
060209	11:51	700	HL45 words	11	3500	words
060209	11:51	700	JSHL45	12	8483	6
060209	11:51	700	JSseeLH03	13	500	0
060209	11:51	700	LH03 yard	14	3391	yard
060209	11:51	700	JSLH03	15	5692	6
060209	11:51	700	JSseeHL21	16	500	0
060209	11:51	700	HL21 empire	17	4490	empire
060209	11:51	700	JSHL21	18	6319	7
060209	11:51	700	JSseeLH38	19	500	0
060209	11:51	700	LH38 paint	20	3273	paint
060209	11:51	700	JSLH38	21	5252	7
060209	11:51	700	JSseeLH43	22	500	0
060209	11:51	700	LH43 noise	23	4404	noise
060209	11:51	700	JSLH43	24	8156	6
060209	11:51	700	JSseeLH37	25	500	0
060209	11:51	700	LH37 pad	26	6519	pale
060209	11:51	700	JSLH37	27	9107	5
060209	11:51	700	JSseeHL07	28	500	0
060209	11:51	700	HL07 king	29	3388	king
060209	11:51	700	JSHL07	30	11121	6
060209	11:51	700	JSseeHL39	31	500	0
060209	11:51	700	HL39 book	32	2954	book
060209	11:51	700	JSHL39	33	4474	5
060209	11:51	700	JSseeLH24	34	500	0
060209	11:51	700	LH24 feeling	35	3957	feeling
060209	11:51	700	JSLH24	36	5513	8
060209	11:51	700	JSseeHL42	37	500	0
060209	11:51	700	HL42 pie	38	3191	pie
060209	11:51	700	JSHL42	39	3444	5
060209	11:51	700	JSseeUR30	40	500	0
060209	11:51	700	UR30 lover	41	4676	cancer
060209	11:51	700	JSUR30	42	6193	6
060209	11:51	700	JSseeUR95	43	500	0
060209	11:51	700	UR95 fool	44	3384	goal
060209	11:51	700	JSUR95	45	4637	5
060209	11:51	700	JSseeLH20	46	500	0
060209	11:51	700	LH20 violation	47	5449	violent
060209	11:51	700	JSLH20	48	4348	6
060209	11:51	700	JSseeUR96	49	500	0
060209	11:51	700	UR96 dessert	50	5524	desire
060209	11:51	700	JSUR96	51	4884	8
060209	11:51	700	JSseeUR66	52	500	0
060209	11:51	700	UR66 chief	53	10053	pie
060209	11:51	700	JSUR66	54	6655	4
060209	11:51	700	JSseeHL17	55	500	0
060209	11:51	700	HL17 soap	56	3459	soap
060209	11:51	700	JSHL17	57	3405	8
060209	11:51	700	JSseeUR06	58	500	0
060209	11:51	700	UR06 cello	59	10687	cell
060209	11:51	700	JSUR06	60	9309	8
060209	11:51	700	JSseeLH32	61	500	0
060209	11:51	700	LH32 capacity	62	18717	celebrity
060209	11:51	700	JSLH32	63	6797	5
060209	11:51	700	JSseeUR103	64	500	0
060209	11:51	700	UR103 hula	65	4274	funny
060209	11:51	700	JSUR103	66	3369	6
060209	11:51	700	JSseeHL23	67	500	0
060209	11:51	700	HL23 baby	68	5748	baby
060209	11:51	700	JSHL23	69	5938	8
060209	11:51	700	JSseeUR63	70	500	0
060209	11:51	700	UR63 alley	71	5093	sinus
060209	11:51	700	JSUR63	72	4639	6
060209	11:51	700	JSseeLH11	73	500	0
060209	11:51	700	LH11 cancer	74	3643	fish
060209	11:51	700	JSLH11	75	9229	6
060209	11:51	700	JSseeHL03	76	500	0
060209	11:51	700	HL03 cigarette	77	27440	cigar
060209	11:51	700	JSHL03	78	7763	6
060209	11:51	700	JSseeUR28	79	500	0
060209	11:51	700	UR28 bang	80	4438	bag
060209	11:51	700	JSUR28	81	5373	5
060209	11:51	700	JSseeLH04	82	500	0
060209	11:51	700	LH04 grade	83	4057	grade
060209	11:51	700	JSLH04	84	6304	7
060209	11:51	700	JSseeHL01	85	500	0
060209	11:51	700	HL01 elephant	86	4748	elephant
060209	11:51	700	JSHL01	87	3262	5
060209	11:51	700	JSseeLH27	88	500	0
060209	11:51	700	LH27 condition	89	5109	condition
060209	11:51	700	JSLH27	90	4663	5
060209	11:51	700	JSseeLH51	91	500	0
060209	11:51	700	LH51 exit	92	5306	electric
060209	11:51	700	JSLH51	93	5459	5
060209	11:51	700	JSseeLH07	94	500	0
060209	11:51	700	LH07 rear	95	12195	amps
060209	11:51	700	JSLH07	96	6463	7
060209	11:51	700	JSseeHL41	97	500	0
060209	11:51	700	HL41 hand	98	3595	hat
060209	11:51	700	JSHL41	99	6159	7
060209	11:51	700	JSseeUR50	100	500	0
060209	11:51	700	UR50 crane	101	6736	crane
060209	11:51	700	JSUR50	102	5075	5
060209	11:51	700	JSseeUR76	103	500	0
060209	11:51	700	UR76 dignity	104	5884	digital
060209	11:51	700	JSUR76	105	4412	6
060209	11:51	700	JSseeUR69	106	500	0
060209	11:51	700	UR69 flashlight	107	6714	strawberry
060209	11:51	700	JSUR69	108	3758	6
060209	11:51	700	JSseeUR85	109	500	0
060209	11:51	700	UR85 stroke	110	4120	stroke
060209	11:51	700	JSUR85	111	4101	5
060209	11:51	700	JSseeHL47	112	500	0
060209	11:51	700	HL47 horse	113	4680	horse
060209	11:51	700	JSHL47	114	3845	7
060209	11:51	700	JSseeHL49	115	500	0
060209	11:51	700	HL49 spice	116	3380	spice
060209	11:51	700	JSHL49	117	5144	5
060209	11:51	700	JSseeUR22	118	500	0
060209	11:51	700	UR22 thesaurus	119	3878	base
060209	11:51	700	JSUR22	120	5350	6
060209	11:51	700	JSseeLH25	121	500	0
060209	11:51	700	LH25 track	122	4563	schedule
060209	11:51	700	JSLH25	123	3557	8
060209	11:51	700	JSseeUR82	124	500	0
060209	11:51	700	UR82 campus	125	11360	camper
060209	11:51	700	JSUR82	126	6321	7
060209	11:51	700	JSseeLH02	127	500	0
060209	11:51	700	LH02 harm	128	3635	harm
060209	11:51	700	JSLH02	129	6645	5
060209	11:51	700	JSseeLH14	130	500	0
060209	11:51	700	LH14 note	131	9865	man
060209	11:51	700	JSLH14	132	6124	4
060209	11:51	700	JSseeUR70	133	500	0
060209	11:51	700	UR70 pajamas	134	5718	water
060209	11:51	700	JSUR70	135	3782	6
060209	11:51	700	JSseeHL31	136	500	0
060209	11:51	700	HL31 war	137	3079	war
060209	11:51	700	JSHL31	138	4841	5
060209	11:51	700	JSseeLH50	139	500	0
060209	11:51	700	LH50 measure	140	3564	mean
060209	11:51	700	JSLH50	141	3185	5
060209	11:51	700	JSseeUR60	142	500	0
060209	11:51	700	UR60 plaque	143	3620	peck
060209	11:51	700	JSUR60	144	7103	5
060209	11:51	700	JSseeUR68	145	500	0
060209	11:51	700	UR68 fatigue	146	3951	drain
060209	11:51	700	JSUR68	147	5995	5
060209	11:51	700	JSseeUR20	148	500	0
060209	11:51	700	UR20 climax	149	4724	calm
060209	11:51	700	JSUR20	150	3046	5
060209	11:51	700	JSseeHL09	151	500	0
060209	11:51	700	HL09 chalk	152	4015	chalk
060209	11:51	700	JSHL09	153	3593	8
060209	11:51	700	JSseeLH09	154	500	0
060209	11:51	700	LH09 piece	155	4402	shirt
060209	11:51	700	JSLH09	156	3579	5
060209	11:51	700	JSseeUR27	157	500	0
060209	11:51	700	UR27 consequence	158	7852	conquer
060209	11:51	700	JSUR27	159	7734	7
060209	11:51	700	JSseeLH30	160	500	0
060209	11:51	700	LH30 assignment	161	4995	assignment
060209	11:51	700	JSLH30	162	4786	8
060209	11:51	700	JSseeUR67	163	500	0
060209	11:51	700	UR67 producer	164	5807	proceed
060209	11:51	700	JSUR67	165	6370	3
060209	11:51	700	JSseeUR13	166	500	0
060209	11:51	700	UR13 almanac	167	3530	animan
060209	11:51	700	JSUR13	168	7657	7
060209	11:51	700	JSseeUR107	169	500	0
060209	11:51	700	UR107 cocaine	170	7113	spinder
060209	11:51	700	JSUR107	171	7235	6
060209	11:51	700	JSseeUR65	172	500	0
060209	11:51	700	UR65 checkers	173	4230	cracker
060209	11:51	700	JSUR65	174	4102	7
060209	11:51	700	JSseeUR59	175	500	0
060209	11:51	700	UR59 copper	176	5401	cow
060209	11:51	700	JSUR59	177	7374	6
060209	11:51	700	JSseeHL53	178	500	0
060209	11:51	700	HL53 fish	179	3011	fish
060209	11:51	700	JSHL53	180	2496	8
060209	11:51	700	JSseeUR47	181	500	0
060209	11:51	700	UR47 chimpanzee	182	10025	smoke
060209	11:51	700	JSUR47	183	3828	5
060209	11:51	700	JSseeUR58	184	500	0
060209	11:51	700	UR58 answer	185	4964	knee
060209	11:51	700	JSUR58	186	2444	5
060209	11:51	700	JSseeLH53	187	500	0
060209	11:51	700	LH53 core	188	3847	score
060209	11:51	700	JSLH53	189	4168	4
060209	11:51	700	JSseeUR105	190	500	0
060209	11:51	700	UR105 curtain	191	4401	curtain
060209	11:51	700	JSUR105	192	4713	2
060209	11:51	700	JSseeHL05	193	500	0
060209	11:51	700	HL05 mountain	194	4729	mountain
060209	11:51	700	JSHL05	195	4580	7
060209	11:51	700	JSseeUR64	196	500	0
060209	11:51	700	UR64 fist	197	6634	first
060209	11:51	700	JSUR64	198	12818	6
060209	11:51	700	JSseeUR32	199	500	0
060209	11:51	700	UR32 navigator	200	6200	nickle
060209	11:51	700	JSUR32	201	6115	3
060209	11:51	700	JSseeUR04	202	500	0
060209	11:51	700	UR04 marsh	203	4494	march
060209	11:51	700	JSUR04	204	3259	7
060209	11:51	700	JSseeHL34	205	500	0
060209	11:51	700	HL34 hunger	206	4011	human
060209	11:51	700	JSHL34	207	4789	7
060209	11:51	700	JSseeUR106	208	500	0
060209	11:51	700	UR106 eagle	209	3490	eagle
060209	11:51	700	JSUR106	210	4115	4
060209	11:51	700	JSseeUR77	211	500	0
060209	11:51	700	UR77 uncle	212	3621	uncle
060209	11:51	700	JSUR77	213	3024	8
060209	11:51	700	JSseeUR35	214	500	0
060209	11:51	700	UR35 cause	215	4698	cave
060209	11:51	700	JSUR35	216	4182	6
060209	11:51	700	JSseeHL43	217	500	0
060209	11:51	700	HL43 money	218	3998	money
060209	11:51	700	JSHL43	219	6712	6
060209	11:51	700	JSseeLH23	220	500	0
060209	11:51	700	LH23 possibility	221	8633	position
060209	11:51	700	JSLH23	222	3361	6
060209	11:51	700	JSseeUR36	223	500	0
060209	11:51	700	UR36 denim	224	3516	denial
060209	11:51	700	JSUR36	225	5547	5
060209	11:51	700	JSseeHL24	226	500	0
060209	11:51	700	HL24 eye	227	3239	eye
060209	11:51	700	JSHL24	228	4531	3
060209	11:51	700	JSseeLH22	229	500	0
060209	11:51	700	LH22 crowd	230	5795	crowd
060209	11:51	700	JSLH22	231	3711	6
060209	11:51	700	JSseeLH05	232	500	0
060209	11:51	700	LH05 chain	233	2860	chain
060209	11:51	700	JSLH05	234	4872	6
060209	11:51	700	JSseeUR45	235	500	0
060209	11:51	700	UR45 bridge	236	7353	honeymoon
060209	11:51	700	JSUR45	237	5817	6
060209	11:51	700	JSseeHL33	238	500	0
060209	11:51	700	HL33 joke	239	3161	joke
060209	11:51	700	JSHL33	240	4336	4
060209	11:51	700	JSseeUR14	241	500	0
060209	11:51	700	UR14 fudge	242	13841	convict
060209	11:51	700	JSUR14	243	8797	7
060209	11:51	700	JSseeUR46	244	500	0
060209	11:51	700	UR46 content	245	5156	container
060209	11:51	700	JSUR46	246	3107	5
060209	11:51	700	JSseeUR78	247	500	0
060209	11:51	700	UR78 blender	248	3442	blend
060209	11:51	700	JSUR78	249	3877	7
060209	11:51	700	JSseeUR62	250	500	0
060209	11:51	700	UR62 chemistry	251	7170	chemistry
060209	11:51	700	JSUR62	252	5474	6
060209	11:51	700	JSseeUR75	253	500	0
060209	11:51	700	UR75 awe	254	11225	animal
060209	11:51	700	JSUR75	255	5792	2
060209	11:51	700	JSseeLH46	256	500	0
060209	11:51	700	LH46 submarine	257	3609	sub
060209	11:51	700	JSLH46	258	3117	4
060209	11:51	700	JSseeLH17	259	500	0
060209	11:51	700	LH17 life	260	2243	life
060209	11:51	700	JSLH17	261	4001	6
060209	11:51	700	JSseeUR21	262	500	0
060209	11:51	700	UR21 ore	263	6001	orgin
060209	11:51	700	JSUR21	264	3476	8
060209	11:51	700	JSseeUR17	265	500	0
060209	11:51	700	UR17 trance	266	4923	box
060209	11:51	700	JSUR17	267	3948	6
060209	11:51	700	JSseeUR98	268	500	0
060209	11:51	700	UR98 latch	269	7782	launch
060209	11:51	700	JSUR98	270	5955	5
060209	11:51	700	JSseeHL36	271	500	0
060209	11:51	700	HL36 football	272	4013	football
060209	11:51	700	JSHL36	273	6071	4
060209	11:51	700	JSseeHL32	274	500	0
060209	11:51	700	HL32 television	275	6132	television
060209	11:51	700	JSHL32	276	4537	5
060209	11:51	700	JSseeLH19	277	500	0
060209	11:51	700	LH19 snob	278	2329	pig
060209	11:51	700	JSLH19	279	2428	8
060209	11:51	700	JSseeHL51	280	500	0
060209	11:51	700	HL51 color	281	2336	color
060209	11:51	700	JSHL51	282	1891	6
060209	11:51	700	JSseeHL50	283	500	0
060209	11:51	700	HL50 doctor	284	4495	doctor
060209	11:51	700	JSHL50	285	2635	6
060209	11:51	700	JSseeUR53	286	500	0
060209	11:51	700	UR53 hell	287	3047	hero
060209	11:51	700	JSUR53	288	9922	5
060209	11:51	700	JSseeUR87	289	500	0
060209	11:51	700	UR87 duty	290	4079	duty
060209	11:51	700	JSUR87	291	4254	6
060209	11:51	700	JSseeHL25	292	500	0
060209	11:51	700	HL25 cut	293	3291	cut
060209	11:51	700	JSHL25	294	3004	5
060209	11:51	700	JSseeHL14	295	500	0
060209	11:51	700	HL14 milk	296	2695	milk
060209	11:51	700	JSHL14	297	4210	6
060209	11:51	700	JSseeHL10	298	500	0
060209	11:51	700	HL10 cow	299	6745	crazy
060209	11:51	700	JSHL10	300	5899	6
060209	11:51	700	JSseeUR01	301	500	0
060209	11:51	700	UR01 file	302	2496	file
060209	11:51	700	JSUR01	303	4636	5
060209	11:51	700	JSseeUR55	304	500	0
060209	11:51	700	UR55 bargain	305	4927	minister
060209	11:51	700	JSUR55	306	5329	7
060209	11:51	700	JSseeUR07	307	500	0
060209	11:51	700	UR07 gathering	308	4319	gauge
060209	11:51	700	JSUR07	309	7483	5
060209	11:51	700	JSseeUR74	310	500	0
060209	11:51	700	UR74 suitcase	311	3003	sunset
060209	11:51	700	JSUR74	312	5536	6
060209	11:51	700	JSseeUR34	313	500	0
060209	11:51	700	UR34 charity	314	3453	charity
060209	11:51	700	JSUR34	315	2639	8
060209	11:51	700	JSseeLH54	316	500	0
060209	11:51	700	LH54 limit	317	2378	limit
060209	11:51	700	JSLH54	318	4355	5
060209	11:51	700	JSseeUR54	319	500	0
060209	11:51	700	UR54 steam	320	7531	stero
060209	11:51	700	JSUR54	321	4907	5
060209	11:51	700	JSseeUR24	322	500	0
060209	11:51	700	UR24 kid	323	3275	kin
060209	11:51	700	JSUR24	324	2517	5
060209	11:51	700	JAseePR26	1	500	0
060209	11:51	700	PR26 colonel	2	10027	college
060209	11:51	700	JAPR26	3	20278	8
060209	11:51	700	JAseePR24	4	500	0
060209	11:51	700	PR24 pest	5	7135	development
060209	11:51	700	JAPR24	6	7344	9
060209	11:51	700	JAseePR08	7	500	0
060209	11:51	700	PR08 beef	8	35237	bee
060209	11:51	700	JAPR08	9	3012	4
060209	11:51	700	JAseePR05	10	500	0
060209	11:51	700	PR05 calf	11	3398	calf
060209	11:51	700	JAPR05	12	4227	7
060209	11:51	700	JAseePR14	13	500	0
060209	11:51	700	PR14 religion	14	7440	religion
060209	11:51	700	JAPR14	15	4941	8
060209	11:51	700	JAseePR19	16	500	0
060209	11:51	700	PR19 void	17	3923	void
060209	11:51	700	JAPR19	18	4249	6
060209	11:51	700	JAseePR12	19	500	0
060209	11:51	700	PR12 royalty	20	4133	loyality
060209	11:51	700	JAPR12	21	8729	7
060209	11:51	700	JAseePR02	22	500	0
060209	11:51	700	PR02 wrinkle	23	4891	winkle
060209	11:51	700	JAPR02	24	5054	3
060209	11:51	700	JAseePR10	25	500	0
060209	11:51	700	PR10 camel	26	3504	camel
060209	11:51	700	JAPR10	27	3888	9
060209	11:51	700	JAseePR15	28	500	0
060209	11:51	700	PR15 depletion	29	5676	one
060209	11:51	700	JAPR15	30	6949	8
060209	11:51	700	JAseePR20	31	500	0
060209	11:51	700	PR20 advertisement	32	5252	adverse
060209	11:51	700	JAPR20	33	6151	2
060209	11:51	700	JAseePR29	34	500	0
060209	11:51	700	PR29 mermaid	35	4097	memory
060209	11:51	700	JAPR29	36	5135	1
060209	11:51	700	JAseePR16	37	500	0
060209	11:51	700	PR16 compulsion	38	3716	online
060209	11:51	700	JAPR16	39	6619	5
060209	11:51	700	JAseePR22	40	500	0
060209	11:51	700	PR22 ass	41	8776	asprin
060209	11:51	700	JAPR22	42	3578	4
060209	11:51	700	JAseeUR43	1	500	0
060209	11:51	700	UR43 balloon	2	4540	balloon
060209	11:51	700	JAUR43	3	4391	3
060209	11:51	700	JAseeUR102	4	500	0
060209	11:51	700	UR102 velocity	5	4533	victory
060209	11:51	700	JAUR102	6	5472	2
060209	11:51	700	JAseeHL08	7	500	0
060209	11:51	700	HL08 math	8	2343	math
060209	11:51	700	JAHL08	9	9225	8
060209	11:51	700	JAseeLH13	10	500	0
060209	11:51	700	LH13 crease	11	6613	stitch
060209	11:51	700	JALH13	12	12949	10
060209	11:51	700	JAseeLH08	13	500	0
060209	11:51	700	LH08 house	14	2590	house
060209	11:51	700	JALH08	15	2557	5
060209	11:51	700	JAseeUR71	16	500	0
060209	11:51	700	UR71 padding	17	3052	paddle
060209	11:51	700	JAUR71	18	4071	1
060209	11:51	700	JAseeUR25	19	500	0
060209	11:51	700	UR25 partner	20	3596	pasta
060209	11:51	700	JAUR25	21	4879	3
060209	11:51	700	JAseeLH47	22	500	0
060209	11:51	700	LH47 detergent	23	10289	detergent
060209	11:51	700	JALH47	24	7136	2
060209	11:51	700	JAseeLH36	25	500	0
060209	11:51	700	LH36 gang	26	2671	gang
060209	11:51	700	JALH36	27	7915	6
060209	11:51	700	JAseeHL15	28	500	0
060209	11:51	700	HL15 bomb	29	11488	palm
060209	11:51	700	JAHL15	30	9027	2
060209	11:51	700	JAseeUR84	31	500	0
060209	11:51	700	UR84 flag	32	3648	flag
060209	11:51	700	JAUR84	33	2921	2
060209	11:51	700	JAseeHL29	34	500	0
060209	11:51	700	HL29 ring	35	2248	ring
060209	11:51	700	JAHL29	36	6431	1
060209	11:51	700	JAseeLH29	37	500	0
060209	11:51	700	LH29 closet	38	2908	closet
060209	11:51	700	JALH29	39	7942	4
060209	11:51	700	JAseeLH52	40	500	0
060209	11:51	700	LH52 bureau	41	6210	average
060209	11:51	700	JALH52	42	4196	1
060209	11:51	700	JAseeLH48	43	500	0
060209	11:51	700	LH48 outcome	44	7515	time
060209	11:51	700	JALH48	45	5747	8
060209	11:51	700	JAseeUR29	46	500	0
060209	11:51	700	UR29 patrol	47	4879	patrol
060209	11:51	700	JAUR29	48	4683	2
060209	11:51	700	JAseeLH28	49	500	0
060209	11:51	700	LH28 vagrant	50	4461	single
060209	11:51	700	JALH28	51	6915	5
060209	11:51	700	JAseeHL52	52	500	0
060209	11:51	700	HL52 sand	53	1827	sand
060209	11:51	700	JAHL52	54	5100	7
060209	11:51	700	JAseeHL44	55	500	0
060209	11:51	700	HL44 baseball	56	4075	baseball
060209	11:51	700	JAHL44	57	5682	9
060209	11:51	700	JAseeUR37	58	500	0
060209	11:51	700	UR37 cloth	59	2817	cloth
060209	11:51	700	JAUR37	60	2663	6
060209	11:51	700	JAseeUR81	61	500	0
060209	11:51	700	UR81 acid	62	7417	academy
060209	11:51	700	JAUR81	63	4717	1
060209	11:51	700	JAseeUR88	64	500	0
060209	11:51	700	UR88 circus	65	3517	city
060209	11:51	700	JAUR88	66	5236	8
060209	11:51	700	JAseeLH34	67	500	0
060209	11:51	700	LH34 panel	68	2486	panel
060209	11:51	700	JALH34	69	3746	4
060209	11:51	700	JAseeHL54	70	500	0
060209	11:51	700	HL54 indian	71	6997	tendacy
060209	11:51	700	JAHL54	72	6036	2
060209	11:51	700	JAseeUR48	73	500	0
060209	11:51	700	UR48 democracy	74	3923	animal
060209	11:51	700	JAUR48	75	5793	7
060209	11:51	700	JAseeUR40	76	500	0
060209	11:51	700	UR40 dancer	77	2322	dance
060209	11:51	700	JAUR40	78	4094	3
060209	11:51	700	JAseeHL38	79	500	0
060209	11:51	700	HL38 boat	80	2233	boat
060209	11:51	700	JAHL38	81	4833	9
060209	11:51	700	JAseeLH18	82	500	0
060209	11:51	700	LH18 edge	83	2508	edge
060209	11:51	700	JALH18	84	6295	10
060209	11:51	700	JAseeUR89	85	500	0
060209	11:51	700	UR89 crow	86	2898	crow
060209	11:51	700	JAUR89	87	6252	8
060209	11:51	700	JAseeUR18	88	500	0
060209	11:51	700	UR18 relief	89	3282	relief
060209	11:51	700	JAUR18	90	3099	6
060209	11:51	700	JAseeUR80	91	500	0
060209	11:51	700	UR80 antique	92	2074	cure
060209	11:51	700	JAUR80	93	4824	9
060209	11:51	700	JAseeUR15	94	500	0
060209	11:51	700	UR15 compass	95	3412	compass
060209	11:51	700	JAUR15	96	4463	1
060209	11:51	700	JAseeUR08	97	500	0
060209	11:51	700	UR08 assistant	98	6507	elevator
060209	11:51	700	JAUR08	99	4615	5
060209	11:51	700	JAseeUR94	100	500	0
060209	11:51	700	UR94 bristle	101	5716	suit
060209	11:51	700	JAUR94	102	3435	7
060209	11:51	700	JAseeUR61	103	500	0
060209	11:51	700	UR61 suicide	104	5851	sack
060209	11:51	700	JAUR61	105	4269	4
060209	11:51	700	JAseeUR05	106	500	0
060209	11:51	700	UR05 lease	107	3185	lease
060209	11:51	700	JAUR05	108	4495	2
060209	11:51	700	JAseeHL28	109	500	0
060209	11:51	700	HL28 bird	110	2529	bird
060209	11:51	700	JAHL28	111	4843	3
060209	11:51	700	JAseeUR73	112	500	0
060209	11:51	700	UR73 kite	113	2942	tissue
060209	11:51	700	JAUR73	114	7055	3
060209	11:51	700	JAseeUR79	115	500	0
060209	11:51	700	UR79 beetle	116	2705	beet
060209	11:51	700	JAUR79	117	3980	1
060209	11:51	700	JAseeUR31	118	500	0
060209	11:51	700	UR31 diameter	119	4276	diameter
060209	11:51	700	JAUR31	120	8547	4
060209	11:51	700	JAseeUR26	121	500	0
060209	11:51	700	UR26 eternity	122	3763	eternity
060209	11:51	700	JAUR26	123	2928	2
060209	11:51	700	JAseeLH21	124	500	0
060209	11:51	700	LH21 monument	125	2486	moment
060209	11:51	700	JALH21	126	1970	1
060209	11:51	700	JAseeHL48	127	500	0
060209	11:51	700	HL48 airplane	128	6371	airplane
060209	11:51	700	JAHL48	129	7926	9
060209	11:51	700	JAseeLH10	130	500	0
060209	11:51	700	LH10 care	131	2634	care
060209	11:51	700	JALH10	132	6880	8
060209	11:51	700	JAseeLH31	133	500	0
060209	11:51	700	LH31 self	134	2186	self
060209	11:51	700	JALH31	135	4731	3
060209	11:51	700	JAseeUR38	136	500	0
060209	11:51	700	UR38 energy	137	2595	energy
060209	11:51	700	JAUR38	138	2827	1
060209	11:51	700	JAseeUR86	139	500	0
060209	11:51	700	UR86 boulevard	140	3334	board
060209	11:51	700	JAUR86	141	3781	4
060209	11:51	700	JAseeUR90	142	500	0
060209	11:51	700	UR90 sailing	143	2678	sail
060209	11:51	700	JAUR90	144	1833	1
060209	11:51	700	JAseeHL30	145	500	0
060209	11:51	700	HL30 air	146	2359	air
060209	11:51	700	JAHL30	147	5033	9
060209	11:51	700	JAseeUR57	148	500	0
060209	11:51	700	UR57 benefit	149	3492	benefit
060209	11:51	700	JAUR57	150	4517	4
060209	11:51	700	JAseeLH12	151	500	0
060209	11:51	700	LH12 addition	152	3485	ball
060209	11:51	700	JALH12	153	5646	6
060209	11:51	700	JAseeHL04	154	500	0
060209	11:51	700	HL04 beer	155	2422	beer
060209	11:51	700	JAHL04	156	5917	8
060209	11:51	700	JAseeUR11	157	500	0
060209	11:51	700	UR11 foundation	158	4305	foundation
060209	11:51	700	JAUR11	159	5590	4
060209	11:51	700	JAseeLH33	160	500	0
060209	11:51	700	LH33 fable	161	3312	fable
060209	11:51	700	JALH33	162	10160	7
060209	11:51	700	JAseeHL11	163	500	0
060209	11:51	700	HL11 rock	164	2483	rock
060209	11:51	700	JAHL11	165	5087	9
060209	11:51	700	JAseeLH06	166	500	0
060209	11:51	700	LH06 element	167	2775	element
060209	11:51	700	JALH06	168	3583	1
060209	11:51	700	JAseeHL37	169	500	0
060209	11:51	700	HL37 thread	170	9969	thread
060209	11:51	700	JAHL37	171	5415	8
060209	11:51	700	JAseeLH44	172	500	0
060209	11:51	700	LH44 vessel	173	2825	vessel
060209	11:51	700	JALH44	174	3503	4
060209	11:51	700	JAseeLH39	175	500	0
060209	11:51	700	LH39 reward	176	4772	tile
060209	11:51	700	JALH39	177	5212	9
060209	11:51	700	JAseeLH49	178	500	0
060209	11:51	700	LH49 kindness	179	2816	friend
060209	11:51	700	JALH49	180	4189	10
060209	11:51	700	JAseeUR39	181	500	0
060209	11:51	700	UR39 faith	182	2924	faith
060209	11:51	700	JAUR39	183	3270	4
060209	11:51	700	JAseeUR33	184	500	0
060209	11:51	700	UR33 horror	185	6069	hero
060209	11:51	700	JAUR33	186	4374	2
060209	11:51	700	JAseeUR02	187	500	0
060209	11:51	700	UR02 comma	188	3333	common
060209	11:51	700	JAUR02	189	4412	6
060209	11:51	700	JAseeUR93	190	500	0
060209	11:51	700	UR93 catcher	191	3522	ranch
060209	11:51	700	JAUR93	192	5569	1
060209	11:51	700	JAseeHL19	193	500	0
060209	11:51	700	HL19 car	194	4548	crane
060209	11:51	700	JAHL19	195	5734	8
060209	11:51	700	JAseeUR49	196	500	0
060209	11:51	700	UR49 casket	197	2523	cash
060209	11:51	700	JAUR49	198	4982	1
060209	11:51	700	JAseeHL35	199	500	0
060209	11:51	700	HL35 cake	200	2579	cake
060209	11:51	700	JAHL35	201	3435	9
060209	11:51	700	JAseeUR44	202	500	0
060209	11:51	700	UR44 rot	203	3811	jewel
060209	11:51	700	JAUR44	204	2750	6
060209	11:51	700	JAseeUR91	205	500	0
060209	11:51	700	UR91 anteater	206	4252	anteater
060209	11:51	700	JAUR91	207	4331	10
060209	11:51	700	JAseeHL46	208	500	0
060209	11:51	700	HL46 butter	209	3364	butter
060209	11:51	700	JAHL46	210	5474	1
060209	11:51	700	JAseeUR09	211	500	0
060209	11:51	700	UR09 education	212	9761	educator
060209	11:51	700	JAUR09	213	4207	1
060209	11:51	700	JAseeUR83	214	500	0
060209	11:51	700	UR83 lesson	215	3742	lesson
060209	11:51	700	JAUR83	216	4388	2
060209	11:51	700	JAseeHL18	217	500	0
060209	11:51	700	HL18 paper	218	2251	paper
060209	11:51	700	JAHL18	219	3521	9
060209	11:51	700	JAseeLH16	220	500	0
060209	11:51	700	LH16 power	221	2710	power
060209	11:51	700	JALH16	222	3408	8
060209	11:51	700	JAseeHL06	223	500	0
060209	11:51	700	HL06 egg	224	1682	egg
060209	11:51	700	JAHL06	225	2873	1
060209	11:51	700	JAseeHL20	226	500	0
060209	11:51	700	HL20 wine	227	3306	wine
060209	11:51	700	JAHL20	228	5011	9
060209	11:51	700	JAseeHL26	229	500	0
060209	11:51	700	HL26 light	230	2198	eight
060209	11:51	700	JAHL26	231	5431	3
060209	11:51	700	JAseeLH42	232	500	0
060209	11:51	700	LH42 thought	233	3593	thought
060209	11:51	700	JALH42	234	5117	5
060209	11:51	700	JAseeUR41	235	500	0
060209	11:51	700	UR41 chime	236	2939	chime
060209	11:51	700	JAUR41	237	4980	5
060209	11:51	700	JAseePR18	238	500	0
060209	11:51	700	PR18 clorox	239	4297	clorox
060209	11:51	700	JAPR18	240	5607	2
060209	11:51	700	JAseeLH35	241	500	0
060209	11:51	700	LH35 shelter	242	3088	shelter
060209	11:51	700	JALH35	243	3794	7
060209	11:51	700	JAseeUR16	244	500	0
060209	11:51	700	UR16 century	245	4171	century
060209	11:51	700	JAUR16	246	2974	3
060209	11:51	700	JAseeUR108	247	500	0
060209	11:51	700	UR108 shield	248	4923	shop
060209	11:51	700	JAUR108	249	5572	9
060209	11:51	700	JAseeHL12	250	500	0
060209	11:51	700	HL12 space	251	2111	space
060209	11:51	700	JAHL12	252	2268	4
060209	11:51	700	JAseeUR23	253	500	0
060209	11:51	700	UR23 abundance	254	9151	abundance
060209	11:51	700	JAUR23	255	5232	9
060209	11:51	700	JAseeUR104	256	500	0
060209	11:51	700	UR104 aardvark	257	7586	advocate
060209	11:51	700	JAUR104	258	4912	10
060209	11:51	700	JAseeUR56	259	500	0
060209	11:51	700	UR56 antler	260	5152	stress
060209	11:51	700	JAUR56	261	3247	9
060209	11:51	700	JAseeHL16	262	500	0
060209	11:51	700	HL16 broom	263	4248	broom
060209	11:51	700	JAHL16	264	5839	7
060209	11:51	700	JAseeHL40	265	500	0
060209	11:51	700	HL40 temperature	266	4702	temperature
060209	11:51	700	JAHL40	267	2993	2
060209	11:51	700	JAseeUR101	268	500	0
060209	11:51	700	UR101 beard	269	2140	bread
060209	11:51	700	JAUR101	270	3999	4
060209	11:51	700	JAseeLH45	271	500	0
060209	11:51	700	LH45 intellect	272	7071	intelligent
060209	11:51	700	JALH45	273	5083	8
060209	11:51	700	JAseeUR92	274	500	0
060209	11:51	700	UR92 dart	275	1988	dark
060209	11:51	700	JAUR92	276	1438	1
060209	11:51	700	JAseeUR19	277	500	0
060209	11:51	700	UR19 bison	278	2557	basin
060209	11:51	700	JAUR19	279	3495	3
060209	11:51	700	JAseeUR99	280	500	0
060209	11:51	700	UR99 branch	281	2780	branch
060209	11:51	700	JAUR99	282	3395	2
060209	11:51	700	JAseeUR10	283	500	0
060209	11:51	700	UR10 tribe	284	3501	tribe
060209	11:51	700	JAUR10	285	3933	5
060209	11:51	700	JAseeUR72	286	500	0
060209	11:51	700	UR72 band	287	2095	brand
060209	11:51	700	JAUR72	288	3749	7
060209	11:51	700	JAseeUR100	289	500	0
060209	11:51	700	UR100 comb	290	3103	comb
060209	11:51	700	JAUR100	291	5160	1
060209	11:51	700	JAseeLH26	292	500	0
060209	11:51	700	LH26 center	293	2982	center
060209	11:51	700	JALH26	294	4060	5
060209	11:51	700	JAseeUR03	295	500	0
060209	11:51	700	UR03 vehicle	296	5402	vehicle
060209	11:51	700	JAUR03	297	3047	4
060209	11:51	700	JAseeHL22	298	500	0
060209	11:51	700	HL22 problem	299	2456	problem
060209	11:51	700	JAHL22	300	2493	8
060209	11:51	700	JAseeLH15	301	500	0
060209	11:51	700	LH15 blessing	302	3151	bless
060209	11:51	700	JALH15	303	3190	9
060209	11:51	700	JAseeHL27	304	500	0
060209	11:51	700	HL27 rain	305	2585	rain
060209	11:51	700	JAHL27	306	8817	9
060209	11:51	700	JAseeHL02	307	500	0
060209	11:51	700	HL02 flower	308	2374	flower
060209	11:51	700	JAHL02	309	2087	8
060209	11:51	700	JAseeLH41	310	500	0
060209	11:51	700	LH41 girl	311	1690	girl
060209	11:51	700	JALH41	312	4425	6
060209	11:51	700	JAseeHL13	313	500	0
060209	11:51	700	HL13 map	314	1846	map
060209	11:51	700	JAHL13	315	2431	8
060209	11:51	700	JAseeUR97	316	500	0
060209	11:51	700	UR97 banner	317	4547	banquet
060209	11:51	700	JAUR97	318	5285	3
060209	11:51	700	JAseeLH40	319	500	0
060209	11:51	700	LH40 field	320	2364	field
060209	11:51	700	JALH40	321	2790	5
060209	11:51	700	JAseeUR51	322	500	0
060209	11:51	700	UR51 cabbage	323	5467	cabbage
060209	11:51	700	JAUR51	324	2557	1
060209	11:51	700	JAseeUR12	325	500	0
060209	11:51	700	UR12 unicorn	326	3187	spoon
060209	11:51	700	JAUR12	327	2569	7
date	time	subject	trialcode	trialnum	latency	response
060309	11:56	702	JSseePR17	1	500	0
060309	11:56	702	PR17 emerald	2	19608	&
060309	11:56	702	JSPR17	3	26225	10
060309	11:56	702	JSseePR27	4	500	0
060309	11:56	702	PR27 wheat	5	4767	time
060309	11:56	702	JSPR27	6	28199	5
060309	11:56	702	JSseePR07	7	500	0
060309	11:56	702	PR07 bog	8	6190	jazz
060309	11:56	702	JSPR07	9	11464	7
060309	11:56	702	JSseePR23	10	500	0
060309	11:56	702	PR23 companion	11	6930	comparison
060309	11:56	702	JSPR23	12	4644	2
060309	11:56	702	JSseePR06	13	500	0
060309	11:56	702	PR06 beast	14	3496	beast
060309	11:56	702	JSPR06	15	5736	5
060309	11:56	702	JSseePR09	16	500	0
060309	11:56	702	PR09 album	17	4788	alarm
060309	11:56	702	JSPR09	18	9419	2
060309	11:56	702	JSseePR21	19	500	0
060309	11:56	702	PR21 innocence	20	5702	correct
060309	11:56	702	JSPR21	21	2831	1
060309	11:56	702	JSseePR01	22	500	0
060309	11:56	702	PR01 cash	23	3833	cashew
060309	11:56	702	JSPR01	24	11522	5
060309	11:56	702	JSseePR11	25	500	0
060309	11:56	702	PR11 ounce	26	4986	oustide
060309	11:56	702	JSPR11	27	2633	1
060309	11:56	702	JSseePR25	28	500	0
060309	11:56	702	PR25 saliva	29	4700	saltine
060309	11:56	702	JSPR25	30	2711	2
060309	11:56	702	JSseePR30	31	500	0
060309	11:56	702	PR30 maiden	32	5055	majority
060309	11:56	702	JSPR30	33	1539	2
060309	11:56	702	JSseePR03	34	500	0
060309	11:56	702	PR03 acre	35	3606	acorn
060309	11:56	702	JSPR03	36	1545	2
060309	11:56	702	JSseePR13	37	500	0
060309	11:56	702	PR13 ambition	38	10236	amueter
060309	11:56	702	JSPR13	39	3246	2
060309	11:56	702	JSseePR04	40	500	0
060309	11:56	702	PR04 diaper	41	3519	earring
060309	11:56	702	JSPR04	42	1686	1
060309	11:56	702	JSseePR28	43	500	0
060309	11:56	702	PR28 challenge	44	4499	chamber
060309	11:56	702	JSPR28	45	1927	1
060309	11:56	702	JSseeUR42	1	500	0
060309	11:56	702	UR42 sergeant	2	3534	servant
060309	11:56	702	JSUR42	3	4076	3
060309	11:56	702	JSseeUR52	4	500	0
060309	11:56	702	UR52 knight	5	3584	knot
060309	11:56	702	JSUR52	6	1085	1
060309	11:56	702	JSseeLH01	7	500	0
060309	11:56	702	LH01 brain	8	2932	since
060309	11:56	702	JSLH01	9	5101	2
060309	11:56	702	JSseeHL45	10	500	0
060309	11:56	702	HL45 words	11	3452	language
060309	11:56	702	JSHL45	12	2382	2
060309	11:56	702	JSseeLH03	13	500	0
060309	11:56	702	LH03 yard	14	3220	court
060309	11:56	702	JSLH03	15	2713	2
060309	11:56	702	JSseeHL21	16	500	0
060309	11:56	702	HL21 empire	17	3464	greek
060309	11:56	702	JSHL21	18	2209	2
060309	11:56	702	JSseeLH38	19	500	0
060309	11:56	702	LH38 paint	20	3711	paint
060309	11:56	702	JSLH38	21	4246	2
060309	11:56	702	JSseeLH43	22	500	0
060309	11:56	702	LH43 noise	23	4027	scenery
060309	11:56	702	JSLH43	24	1997	2
060309	11:56	702	JSseeLH37	25	500	0
060309	11:56	702	LH37 pad	26	5924	asprin
060309	11:56	702	JSLH37	27	946	6
060309	11:56	702	JSseeHL07	28	500	0
060309	11:56	702	HL07 king	29	3327	chair
060309	11:56	702	JSHL07	30	12415	4
060309	11:56	702	JSseeHL39	31	500	0
060309	11:56	702	HL39 book	32	2839	reader
060309	11:56	702	JSHL39	33	716	2
060309	11:56	702	JSseeLH24	34	500	0
060309	11:56	702	LH24 feeling	35	6763	beleif
060309	11:56	702	JSLH24	36	1173	2
060309	11:56	702	JSseeHL42	37	500	0
060309	11:56	702	HL42 pie	38	3343	pie
060309	11:56	702	JSHL42	39	5775	2
060309	11:56	702	JSseeUR30	40	500	0
060309	11:56	702	UR30 lover	41	3241	lover
060309	11:56	702	JSUR30	42	3708	1
060309	11:56	702	JSseeUR95	43	500	0
060309	11:56	702	UR95 fool	44	2449	fool
060309	11:56	702	JSUR95	45	3247	4
060309	11:56	702	JSseeLH20	46	500	0
060309	11:56	702	LH20 violation	47	5887	victim
060309	11:56	702	JSLH20	48	2967	1
060309	11:56	702	JSseeUR96	49	500	0
060309	11:56	702	UR96 dessert	50	3052	dream
060309	11:56	702	JSUR96	51	2288	1
060309	11:56	702	JSseeUR66	52	500	0
060309	11:56	702	UR66 chief	53	3210	chilli
060309	11:56	702	JSUR66	54	2095	1
060309	11:56	702	JSseeHL17	55	500	0
060309	11:56	702	HL17 soap	56	3474	suds
060309	11:56	702	JSHL17	57	1307	2
060309	11:56	702	JSseeUR06	58	500	0
060309	11:56	702	UR06 cello	59	2960	celius
060309	11:56	702	JSUR06	60	816	2
060309	11:56	702	JSseeLH32	61	500	0
060309	11:56	702	LH32 capacity	62	15658	capatability
060309	11:56	702	JSLH32	63	2087	1
060309	11:56	702	JSseeUR103	64	500	0
060309	11:56	702	UR103 hula	65	4491	humor
060309	11:56	702	JSUR103	66	6567	6
060309	11:56	702	JSseeHL23	67	500	0
060309	11:56	702	HL23 baby	68	2631	baby
060309	11:56	702	JSHL23	69	2165	2
060309	11:56	702	JSseeUR63	70	500	0
060309	11:56	702	UR63 alley	71	3709	allergy
060309	11:56	702	JSUR63	72	3060	2
060309	11:56	702	JSseeLH11	73	500	0
060309	11:56	702	LH11 cancer	74	3836	crab
060309	11:56	702	JSLH11	75	1430	2
060309	11:56	702	JSseeHL03	76	500	0
060309	11:56	702	HL03 cigarette	77	4989	cigarette
060309	11:56	702	JSHL03	78	4180	3
060309	11:56	702	JSseeUR28	79	500	0
060309	11:56	702	UR28 bang	80	5796	bandit
060309	11:56	702	JSUR28	81	1872	2
060309	11:56	702	JSseeLH04	82	500	0
060309	11:56	702	LH04 grade	83	3860	grade
060309	11:56	702	JSLH04	84	2340	2
060309	11:56	702	JSseeHL01	85	500	0
060309	11:56	702	HL01 elephant	86	4260	elephant
060309	11:56	702	JSHL01	87	2131	3
060309	11:56	702	JSseeLH27	88	500	0
060309	11:56	702	LH27 condition	89	5212	controller
060309	11:56	702	JSLH27	90	2378	2
060309	11:56	702	JSseeLH51	91	500	0
060309	11:56	702	LH51 exit	92	3416	exit
060309	11:56	702	JSLH51	93	1235	1
060309	11:56	702	JSseeLH07	94	500	0
060309	11:56	702	LH07 rear	95	2643	end
060309	11:56	702	JSLH07	96	1064	2
060309	11:56	702	JSseeHL41	97	500	0
060309	11:56	702	HL41 hand	98	2273	hand
060309	11:56	702	JSHL41	99	1798	2
060309	11:56	702	JSseeUR50	100	500	0
060309	11:56	702	UR50 crane	101	3486	cramp
060309	11:56	702	JSUR50	102	1943	3
060309	11:56	702	JSseeUR76	103	500	0
060309	11:56	702	UR76 dignity	104	8840	calculator
060309	11:56	702	JSUR76	105	1527	3
060309	11:56	702	JSseeUR69	106	500	0
060309	11:56	702	UR69 flashlight	107	5338	flashlight
060309	11:56	702	JSUR69	108	1018	1
060309	11:56	702	JSseeUR85	109	500	0
060309	11:56	702	UR85 stroke	110	3259	stroke
060309	11:56	702	JSUR85	111	1846	2
060309	11:56	702	JSseeHL47	112	500	0
060309	11:56	702	HL47 horse	113	3020	horse
060309	11:56	702	JSHL47	114	1097	3
060309	11:56	702	JSseeHL49	115	500	0
060309	11:56	702	HL49 spice	116	2400	spice
060309	11:56	702	JSHL49	117	872	2
060309	11:56	702	JSseeUR22	118	500	0
060309	11:56	702	UR22 thesaurus	119	6384	start
060309	11:56	702	JSUR22	120	546	1
060309	11:56	702	JSseeLH25	121	500	0
060309	11:56	702	LH25 track	122	3537	track
060309	11:56	702	JSLH25	123	959	1
060309	11:56	702	JSseeUR82	124	500	0
060309	11:56	702	UR82 campus	125	4667	campus
060309	11:56	702	JSUR82	126	968	1
060309	11:56	702	JSseeLH02	127	500	0
060309	11:56	702	LH02 harm	128	2572	harm
060309	11:56	702	JSLH02	129	1596	2
060309	11:56	702	JSseeLH14	130	500	0
060309	11:56	702	LH14 note	131	2693	note
060309	11:56	702	JSLH14	132	1128	1
060309	11:56	702	JSseeUR70	133	500	0
060309	11:56	702	UR70 pajamas	134	5261	pajamas
060309	11:56	702	JSUR70	135	856	2
060309	11:56	702	JSseeHL31	136	500	0
060309	11:56	702	HL31 war	137	2753	war
060309	11:56	702	JSHL31	138	1810	3
060309	11:56	702	JSseeLH50	139	500	0
060309	11:56	702	LH50 measure	140	3601	measure
060309	11:56	702	JSLH50	141	588	2
060309	11:56	702	JSseeUR60	142	500	0
060309	11:56	702	UR60 plaque	143	3785	plaque
060309	11:56	702	JSUR60	144	620	2
060309	11:56	702	JSseeUR68	145	500	0
060309	11:56	702	UR68 fatigue	146	3655	fatigue
060309	11:56	702	JSUR68	147	1121	2
060309	11:56	702	JSseeUR20	148	500	0
060309	11:56	702	UR20 climax	149	3798	climax
060309	11:56	702	JSUR20	150	1520	3
060309	11:56	702	JSseeHL09	151	500	0
060309	11:56	702	HL09 chalk	152	3212	chalk
060309	11:56	702	JSHL09	153	1528	3
060309	11:56	702	JSseeLH09	154	500	0
060309	11:56	702	LH09 piece	155	4868	piece
060309	11:56	702	JSLH09	156	1040	2
060309	11:56	702	JSseeUR27	157	500	0
060309	11:56	702	UR27 consequence	158	5544	consequence
060309	11:56	702	JSUR27	159	1223	2
060309	11:56	702	JSseeLH30	160	500	0
060309	11:56	702	LH30 assignment	161	4832	assignment
060309	11:56	702	JSLH30	162	622	6
060309	11:56	702	JSseeUR67	163	500	0
060309	11:56	702	UR67 producer	164	4145	producer
060309	11:56	702	JSUR67	165	1893	2
060309	11:56	702	JSseeUR13	166	500	0
060309	11:56	702	UR13 almanac	167	4529	almanac
060309	11:56	702	JSUR13	168	1116	3
060309	11:56	702	JSseeUR107	169	500	0
060309	11:56	702	UR107 cocaine	170	3226	spider
060309	11:56	702	JSUR107	171	1822	5
060309	11:56	702	JSseeUR65	172	500	0
060309	11:56	702	UR65 checkers	173	3604	crackers
060309	11:56	702	JSUR65	174	1848	5
060309	11:56	702	JSseeUR59	175	500	0
060309	11:56	702	UR59 copper	176	3766	copier
060309	11:56	702	JSUR59	177	1746	6
060309	11:56	702	JSseeHL53	178	500	0
060309	11:56	702	HL53 fish	179	1996	fish
060309	11:56	702	JSHL53	180	749	4
060309	11:56	702	JSseeUR47	181	500	0
060309	11:56	702	UR47 chimpanzee	182	5395	chimpanzee
060309	11:56	702	JSUR47	183	577	2
060309	11:56	702	JSseeUR58	184	500	0
060309	11:56	702	UR58 answer	185	3566	answer
060309	11:56	702	JSUR58	186	995	1
060309	11:56	702	JSseeLH53	187	500	0
060309	11:56	702	LH53 core	188	1910	core
060309	11:56	702	JSLH53	189	411	1
060309	11:56	702	JSseeUR105	190	500	0
060309	11:56	702	UR105 curtain	191	3943	curtain
060309	11:56	702	JSUR105	192	428	4
060309	11:56	702	JSseeHL05	193	500	0
060309	11:56	702	HL05 mountain	194	5712	mountain
060309	11:56	702	JSHL05	195	496	1
060309	11:56	702	JSseeUR64	196	500	0
060309	11:56	702	UR64 fist	197	5456	first
060309	11:56	702	JSUR64	198	947	1
060309	11:56	702	JSseeUR32	199	500	0
060309	11:56	702	UR32 navigator	200	4304	navigator
060309	11:56	702	JSUR32	201	1021	2
060309	11:56	702	JSseeUR04	202	500	0
060309	11:56	702	UR04 marsh	203	2510	mask
060309	11:56	702	JSUR04	204	481	2
060309	11:56	702	JSseeHL34	205	500	0
060309	11:56	702	HL34 hunger	206	2523	hunger
060309	11:56	702	JSHL34	207	1118	8
060309	11:56	702	JSseeUR106	208	500	0
060309	11:56	702	UR106 eagle	209	3955	eagle
060309	11:56	702	JSUR106	210	656	7
060309	11:56	702	JSseeUR77	211	500	0
060309	11:56	702	UR77 uncle	212	2353	uncle
060309	11:56	702	JSUR77	213	2715	4
060309	11:56	702	JSseeUR35	214	500	0
060309	11:56	702	UR35 cause	215	2635	cause
060309	11:56	702	JSUR35	216	873	1
060309	11:56	702	JSseeHL43	217	500	0
060309	11:56	702	HL43 money	218	3513	money
060309	11:56	702	JSHL43	219	688	8
060309	11:56	702	JSseeLH23	220	500	0
060309	11:56	702	LH23 possibility	221	5552	responsibility
060309	11:56	702	JSLH23	222	1799	6
060309	11:56	702	JSseeUR36	223	500	0
060309	11:56	702	UR36 denim	224	3151	denim
060309	11:56	702	JSUR36	225	1190	5
060309	11:56	702	JSseeHL24	226	500	0
060309	11:56	702	HL24 eye	227	4384	eye
060309	11:56	702	JSHL24	228	1433	1
060309	11:56	702	JSseeLH22	229	500	0
060309	11:56	702	LH22 crowd	230	4697	crowd
060309	11:56	702	JSLH22	231	965	2
060309	11:56	702	JSseeLH05	232	500	0
060309	11:56	702	LH05 chain	233	3721	chain
060309	11:56	702	JSLH05	234	768	2
060309	11:56	702	JSseeUR45	235	500	0
060309	11:56	702	UR45 bridge	236	3988	marriage
060309	11:56	702	JSUR45	237	1031	9
060309	11:56	702	JSseeHL33	238	500	0
060309	11:56	702	HL33 joke	239	2848	joke
060309	11:56	702	JSHL33	240	773	2
060309	11:56	702	JSseeUR14	241	500	0
060309	11:56	702	UR14 fudge	242	3945	felony
060309	11:56	702	JSUR14	243	574	5
060309	11:56	702	JSseeUR46	244	500	0
060309	11:56	702	UR46 content	245	2899	content
060309	11:56	702	JSUR46	246	1181	3
060309	11:56	702	JSseeUR78	247	500	0
060309	11:56	702	UR78 blender	248	3040	blender
060309	11:56	702	JSUR78	249	3029	5
060309	11:56	702	JSseeUR62	250	500	0
060309	11:56	702	UR62 chemistry	251	4838	chemistry
060309	11:56	702	JSUR62	252	2284	5
060309	11:56	702	JSseeUR75	253	500	0
060309	11:56	702	UR75 awe	254	4990	ax
060309	11:56	702	JSUR75	255	789	4
060309	11:56	702	JSseeLH46	256	500	0
060309	11:56	702	LH46 submarine	257	3785	submarine
060309	11:56	702	JSLH46	258	789	5
060309	11:56	702	JSseeLH17	259	500	0
060309	11:56	702	LH17 life	260	2048	life
060309	11:56	702	JSLH17	261	872	5
060309	11:56	702	JSseeUR21	262	500	0
060309	11:56	702	UR21 ore	263	2624	core
060309	11:56	702	JSUR21	264	1214	1
060309	11:56	702	JSseeUR17	265	500	0
060309	11:56	702	UR17 trance	266	4632	trance
060309	11:56	702	JSUR17	267	351	2
060309	11:56	702	JSseeUR98	268	500	0
060309	11:56	702	UR98 latch	269	3397	latch
060309	11:56	702	JSUR98	270	594	5
060309	11:56	702	JSseeHL36	271	500	0
060309	11:56	702	HL36 football	272	3470	football
060309	11:56	702	JSHL36	273	543	1
060309	11:56	702	JSseeHL32	274	500	0
060309	11:56	702	HL32 television	275	6758	television
060309	11:56	702	JSHL32	276	471	2
060309	11:56	702	JSseeLH19	277	500	0
060309	11:56	702	LH19 snob	278	5065	snob
060309	11:56	702	JSLH19	279	1909	3
060309	11:56	702	JSseeHL51	280	500	0
060309	11:56	702	HL51 color	281	3679	red
060309	11:56	702	JSHL51	282	1295	1
060309	11:56	702	JSseeHL50	283	500	0
060309	11:56	702	HL50 doctor	284	3765	doctor
060309	11:56	702	JSHL50	285	1649	2
060309	11:56	702	JSseeUR53	286	500	0
060309	11:56	702	UR53 hell	287	3016	hell
060309	11:56	702	JSUR53	288	861	2
060309	11:56	702	JSseeUR87	289	500	0
060309	11:56	702	UR87 duty	290	2502	duty
060309	11:56	702	JSUR87	291	489	2
060309	11:56	702	JSseeHL25	292	500	0
060309	11:56	702	HL25 cut	293	1586	cut
060309	11:56	702	JSHL25	294	1070	3
060309	11:56	702	JSseeHL14	295	500	0
060309	11:56	702	HL14 milk	296	2333	milk
060309	11:56	702	JSHL14	297	568	1
060309	11:56	702	JSseeHL10	298	500	0
060309	11:56	702	HL10 cow	299	1678	cow
060309	11:56	702	JSHL10	300	1013	2
060309	11:56	702	JSseeUR01	301	500	0
060309	11:56	702	UR01 file	302	6127	file
060309	11:56	702	JSUR01	303	780	1
060309	11:56	702	JSseeUR55	304	500	0
060309	11:56	702	UR55 bargain	305	6897	religion
060309	11:56	702	JSUR55	306	684	1
060309	11:56	702	JSseeUR07	307	500	0
060309	11:56	702	UR07 gathering	308	4764	gathering
060309	11:56	702	JSUR07	309	933	2
060309	11:56	702	JSseeUR74	310	500	0
060309	11:56	702	UR74 suitcase	311	3779	suitcase
060309	11:56	702	JSUR74	312	1127	2
060309	11:56	702	JSseeUR34	313	500	0
060309	11:56	702	UR34 charity	314	5588	charity
060309	11:56	702	JSUR34	315	1936	1
060309	11:56	702	JSseeLH54	316	500	0
060309	11:56	702	LH54 limit	317	2642	limit
060309	11:56	702	JSLH54	318	1216	2
060309	11:56	702	JSseeUR54	319	500	0
060309	11:56	702	UR54 steam	320	3577	stereo
060309	11:56	702	JSUR54	321	742	2
060309	11:56	702	JSseeUR24	322	500	0
060309	11:56	702	UR24 kid	323	2412	kid
060309	11:56	702	JSUR24	324	1315	2
060309	11:56	702	JAseePR26	1	500	0
060309	11:56	702	PR26 colonel	2	5644	colugue
060309	11:56	702	JAPR26	3	13406	1
060309	11:56	702	JAseePR24	4	500	0
060309	11:56	702	PR24 pest	5	3340	pest
060309	11:56	702	JAPR24	6	4227	1
060309	11:56	702	JAseePR08	7	500	0
060309	11:56	702	PR08 beef	8	4225	bee
060309	11:56	702	JAPR08	9	4905	1
060309	11:56	702	JAseePR05	10	500	0
060309	11:56	702	PR05 calf	11	3569	calf
060309	11:56	702	JAPR05	12	2662	6
060309	11:56	702	JAseePR14	13	500	0
060309	11:56	702	PR14 religion	14	7432	religion
060309	11:56	702	JAPR14	15	3732	1
060309	11:56	702	JAseePR19	16	500	0
060309	11:56	702	PR19 void	17	2039	vow
060309	11:56	702	JAPR19	18	1855	1
060309	11:56	702	JAseePR12	19	500	0
060309	11:56	702	PR12 royalty	20	3540	royalty
060309	11:56	702	JAPR12	21	1810	1
060309	11:56	702	JAseePR02	22	500	0
060309	11:56	702	PR02 wrinkle	23	2081	wink
060309	11:56	702	JAPR02	24	2223	2
060309	11:56	702	JAseePR10	25	500	0
060309	11:56	702	PR10 camel	26	5492	came
060309	11:56	702	JAPR10	27	6317	10
060309	11:56	702	JAseePR15	28	500	0
060309	11:56	702	PR15 depletion	29	5839	deordorant
060309	11:56	702	JAPR15	30	2713	3
060309	11:56	702	JAseePR20	31	500	0
060309	11:56	702	PR20 advertisement	32	6993	advertisement
060309	11:56	702	JAPR20	33	2600	2
060309	11:56	702	JAseePR29	34	500	0
060309	11:56	702	PR29 mermaid	35	3573	mermaid
060309	11:56	702	JAPR29	36	3810	5
060309	11:56	702	JAseePR16	37	500	0
060309	11:56	702	PR16 compulsion	38	5370	complaint
060309	11:56	702	JAPR16	39	1216	1
060309	11:56	702	JAseePR22	40	500	0
060309	11:56	702	PR22 ass	41	3554	ask
060309	11:56	702	JAPR22	42	2599	2
060309	11:56	702	JAseeUR43	1	500	0
060309	11:56	702	UR43 balloon	2	4783	balloon
060309	11:56	702	JAUR43	3	1431	1
060309	11:56	702	JAseeUR102	4	500	0
060309	11:56	702	UR102 velocity	5	5167	victory
060309	11:56	702	JAUR102	6	1310	1
060309	11:56	702	JAseeHL08	7	500	0
060309	11:56	702	HL08 math	8	10003	math
060309	11:56	702	JAHL08	9	5088	3
060309	11:56	702	JAseeLH13	10	500	0
060309	11:56	702	LH13 crease	11	3495	crease
060309	11:56	702	JALH13	12	2423	1
060309	11:56	702	JAseeLH08	13	500	0
060309	11:56	702	LH08 house	14	3428	house
060309	11:56	702	JALH08	15	2303	2
060309	11:56	702	JAseeUR71	16	500	0
060309	11:56	702	UR71 padding	17	5312	painting
060309	11:56	702	JAUR71	18	5985	1
060309	11:56	702	JAseeUR25	19	500	0
060309	11:56	702	UR25 partner	20	8539	pastry
060309	11:56	702	JAUR25	21	2199	2
060309	11:56	702	JAseeLH47	22	500	0
060309	11:56	702	LH47 detergent	23	4781	detergent
060309	11:56	702	JALH47	24	1885	1
060309	11:56	702	JAseeLH36	25	500	0
060309	11:56	702	LH36 gang	26	3482	gang
060309	11:56	702	JALH36	27	1066	1
060309	11:56	702	JAseeHL15	28	500	0
060309	11:56	702	HL15 bomb	29	4706	bomb
060309	11:56	702	JAHL15	30	2454	1
060309	11:56	702	JAseeUR84	31	500	0
060309	11:56	702	UR84 flag	32	3337	flag
060309	11:56	702	JAUR84	33	3016	1
060309	11:56	702	JAseeHL29	34	500	0
060309	11:56	702	HL29 ring	35	2707	ring
060309	11:56	702	JAHL29	36	2494	1
060309	11:56	702	JAseeLH29	37	500	0
060309	11:56	702	LH29 closet	38	4535	closet
060309	11:56	702	JALH29	39	1313	1
060309	11:56	702	JAseeLH52	40	500	0
060309	11:56	702	LH52 bureau	41	4638	bureau
060309	11:56	702	JALH52	42	7140	1
060309	11:56	702	JAseeLH48	43	500	0
060309	11:56	702	LH48 outcome	44	4083	outcome
060309	11:56	702	JALH48	45	2730	2
060309	11:56	702	JAseeUR29	46	500	0
060309	11:56	702	UR29 patrol	47	3945	patrol
060309	11:56	702	JAUR29	48	1494	1
060309	11:56	702	JAseeLH28	49	500	0
060309	11:56	702	LH28 vagrant	50	3275	vagrant
060309	11:56	702	JALH28	51	1741	1
060309	11:56	702	JAseeHL52	52	500	0
060309	11:56	702	HL52 sand	53	3871	sand
060309	11:56	702	JAHL52	54	1438	1
060309	11:56	702	JAseeHL44	55	500	0
060309	11:56	702	HL44 baseball	56	5062	baseball
060309	11:56	702	JAHL44	57	2826	2
060309	11:56	702	JAseeUR37	58	500	0
060309	11:56	702	UR37 cloth	59	2220	cloth
060309	11:56	702	JAUR37	60	1212	1
060309	11:56	702	JAseeUR81	61	500	0
060309	11:56	702	UR81 acid	62	2518	acid
060309	11:56	702	JAUR81	63	1849	1
060309	11:56	702	JAseeUR88	64	500	0
060309	11:56	702	UR88 circus	65	3502	circus
060309	11:56	702	JAUR88	66	1318	2
060309	11:56	702	JAseeLH34	67	500	0
060309	11:56	702	LH34 panel	68	3579	panel
060309	11:56	702	JALH34	69	448	1
060309	11:56	702	JAseeHL54	70	500	0
060309	11:56	702	HL54 indian	71	2682	indian
060309	11:56	702	JAHL54	72	2046	1
060309	11:56	702	JAseeUR48	73	500	0
060309	11:56	702	UR48 democracy	74	4347	democracy
060309	11:56	702	JAUR48	75	318	1
060309	11:56	702	JAseeUR40	76	500	0
060309	11:56	702	UR40 dancer	77	2206	dancer
060309	11:56	702	JAUR40	78	1183	1
060309	11:56	702	JAseeHL38	79	500	0
060309	11:56	702	HL38 boat	80	3962	boat
060309	11:56	702	JAHL38	81	2014	10
060309	11:56	702	JAseeLH18	82	500	0
060309	11:56	702	LH18 edge	83	2476	edge
060309	11:56	702	JALH18	84	1737	1
060309	11:56	702	JAseeUR89	85	500	0
060309	11:56	702	UR89 crow	86	3235	crow
060309	11:56	702	JAUR89	87	711	1
060309	11:56	702	JAseeUR18	88	500	0
060309	11:56	702	UR18 relief	89	5086	relief
060309	11:56	702	JAUR18	90	1921	1
060309	11:56	702	JAseeUR80	91	500	0
060309	11:56	702	UR80 antique	92	5067	antique
060309	11:56	702	JAUR80	93	18958	1
060309	11:56	702	JAseeUR15	94	500	0
060309	11:56	702	UR15 compass	95	3649	compass
060309	11:56	702	JAUR15	96	210	1
060309	11:56	702	JAseeUR08	97	500	0
060309	11:56	702	UR08 assistant	98	3735	assistant
060309	11:56	702	JAUR08	99	1885	1
060309	11:56	702	JAseeUR94	100	500	0
060309	11:56	702	UR94 bristle	101	3697	bristle
060309	11:56	702	JAUR94	102	1056	1
060309	11:56	702	JAseeUR61	103	500	0
060309	11:56	702	UR61 suicide	104	5000	suicide
060309	11:56	702	JAUR61	105	3647	1
060309	11:56	702	JAseeUR05	106	500	0
060309	11:56	702	UR05 lease	107	2733	lease
060309	11:56	702	JAUR05	108	967	1
060309	11:56	702	JAseeHL28	109	500	0
060309	11:56	702	HL28 bird	110	2395	bird
060309	11:56	702	JAHL28	111	1171	1
060309	11:56	702	JAseeUR73	112	500	0
060309	11:56	702	UR73 kite	113	3150	kite
060309	11:56	702	JAUR73	114	525	1
060309	11:56	702	JAseeUR79	115	500	0
060309	11:56	702	UR79 beetle	116	3917	beet
060309	11:56	702	JAUR79	117	322	1
060309	11:56	702	JAseeUR31	118	500	0
060309	11:56	702	UR31 diameter	119	3538	diameter
060309	11:56	702	JAUR31	120	1601	1
060309	11:56	702	JAseeUR26	121	500	0
060309	11:56	702	UR26 eternity	122	3850	eternity
060309	11:56	702	JAUR26	123	930	1
060309	11:56	702	JAseeLH21	124	500	0
060309	11:56	702	LH21 monument	125	3776	monument
060309	11:56	702	JALH21	126	1804	1
060309	11:56	702	JAseeHL48	127	500	0
060309	11:56	702	HL48 airplane	128	5123	airplane
060309	11:56	702	JAHL48	129	532	3
060309	11:56	702	JAseeLH10	130	500	0
060309	11:56	702	LH10 care	131	2332	care
060309	11:56	702	JALH10	132	1503	6
060309	11:56	702	JAseeLH31	133	500	0
060309	11:56	702	LH31 self	134	5339	self
060309	11:56	702	JALH31	135	267	1
060309	11:56	702	JAseeUR38	136	500	0
060309	11:56	702	UR38 energy	137	4117	enemy
060309	11:56	702	JAUR38	138	330	1
060309	11:56	702	JAseeUR86	139	500	0
060309	11:56	702	UR86 boulevard	140	3538	boulevard
060309	11:56	702	JAUR86	141	1545	1
060309	11:56	702	JAseeUR90	142	500	0
060309	11:56	702	UR90 sailing	143	2556	sailing
060309	11:56	702	JAUR90	144	678	1
060309	11:56	702	JAseeHL30	145	500	0
060309	11:56	702	HL30 air	146	1406	air
060309	11:56	702	JAHL30	147	1633	1
060309	11:56	702	JAseeUR57	148	500	0
060309	11:56	702	UR57 benefit	149	4224	berry
060309	11:56	702	JAUR57	150	801	1
060309	11:56	702	JAseeLH12	151	500	0
060309	11:56	702	LH12 addition	152	3556	addiction
060309	11:56	702	JALH12	153	745	1
060309	11:56	702	JAseeHL04	154	500	0
060309	11:56	702	HL04 beer	155	3271	beer
060309	11:56	702	JAHL04	156	369	1
060309	11:56	702	JAseeUR11	157	500	0
060309	11:56	702	UR11 foundation	158	7455	fountain
060309	11:56	702	JAUR11	159	787	1
060309	11:56	702	JAseeLH33	160	500	0
060309	11:56	702	LH33 fable	161	2638	fable
060309	11:56	702	JALH33	162	748	3
060309	11:56	702	JAseeHL11	163	500	0
060309	11:56	702	HL11 rock	164	3346	rock
060309	11:56	702	JAHL11	165	585	10
060309	11:56	702	JAseeLH06	166	500	0
060309	11:56	702	LH06 element	167	3797	element
060309	11:56	702	JALH06	168	304	2
060309	11:56	702	JAseeHL37	169	500	0
060309	11:56	702	HL37 thread	170	3425	thread
060309	11:56	702	JAHL37	171	1860	5
060309	11:56	702	JAseeLH44	172	500	0
060309	11:56	702	LH44 vessel	173	3097	vessel
060309	11:56	702	JALH44	174	282	1
060309	11:56	702	JAseeLH39	175	500	0
060309	11:56	702	LH39 reward	176	3156	reward
060309	11:56	702	JALH39	177	300	1
060309	11:56	702	JAseeLH49	178	500	0
060309	11:56	702	LH49 kindness	179	4444	kindness
060309	11:56	702	JALH49	180	651	1
060309	11:56	702	JAseeUR39	181	500	0
060309	11:56	702	UR39 faith	182	2749	faith
060309	11:56	702	JAUR39	183	413	2
060309	11:56	702	JAseeUR33	184	500	0
060309	11:56	702	UR33 horror	185	3138	horror
060309	11:56	702	JAUR33	186	1850	2
060309	11:56	702	JAseeUR02	187	500	0
060309	11:56	702	UR02 comma	188	2967	comma
060309	11:56	702	JAUR02	189	2071	1
060309	11:56	702	JAseeUR93	190	500	0
060309	11:56	702	UR93 catcher	191	3291	catcher
060309	11:56	702	JAUR93	192	1284	1
060309	11:56	702	JAseeHL19	193	500	0
060309	11:56	702	HL19 car	194	1787	car
060309	11:56	702	JAHL19	195	750	1
060309	11:56	702	JAseeUR49	196	500	0
060309	11:56	702	UR49 casket	197	2972	casket
060309	11:56	702	JAUR49	198	611	1
060309	11:56	702	JAseeHL35	199	500	0
060309	11:56	702	HL35 cake	200	1807	cake
060309	11:56	702	JAHL35	201	1144	2
060309	11:56	702	JAseeUR44	202	500	0
060309	11:56	702	UR44 rot	203	6853	rock
060309	11:56	702	JAUR44	204	2066	2
060309	11:56	702	JAseeUR91	205	500	0
060309	11:56	702	UR91 anteater	206	2311	ant
060309	11:56	702	JAUR91	207	2682	10
060309	11:56	702	JAseeHL46	208	500	0
060309	11:56	702	HL46 butter	209	3515	butter
060309	11:56	702	JAHL46	210	331	5
060309	11:56	702	JAseeUR09	211	500	0
060309	11:56	702	UR09 education	212	3219	education
060309	11:56	702	JAUR09	213	823	1
060309	11:56	702	JAseeUR83	214	500	0
060309	11:56	702	UR83 lesson	215	2601	lesson
060309	11:56	702	JAUR83	216	3345	2
060309	11:56	702	JAseeHL18	217	500	0
060309	11:56	702	HL18 paper	218	4813	paper
060309	11:56	702	JAHL18	219	2699	10
060309	11:56	702	JAseeLH16	220	500	0
060309	11:56	702	LH16 power	221	3324	power
060309	11:56	702	JALH16	222	2028	2
060309	11:56	702	JAseeHL06	223	500	0
060309	11:56	702	HL06 egg	224	4025	ego
060309	11:56	702	JAHL06	225	938	1
060309	11:56	702	JAseeHL20	226	500	0
060309	11:56	702	HL20 wine	227	1912	wine
060309	11:56	702	JAHL20	228	2293	1
060309	11:56	702	JAseeHL26	229	500	0
060309	11:56	702	HL26 light	230	3239	light
060309	11:56	702	JAHL26	231	2138	1
060309	11:56	702	JAseeLH42	232	500	0
060309	11:56	702	LH42 thought	233	3724	thought
060309	11:56	702	JALH42	234	2810	3
060309	11:56	702	JAseeUR41	235	500	0
060309	11:56	702	UR41 chime	236	3869	chime
060309	11:56	702	JAUR41	237	2053	1
060309	11:56	702	JAseePR18	238	500	0
060309	11:56	702	PR18 clorox	239	3130	clorox
060309	11:56	702	JAPR18	240	674	1
060309	11:56	702	JAseeLH35	241	500	0
060309	11:56	702	LH35 shelter	242	3019	shelter
060309	11:56	702	JALH35	243	2416	8
060309	11:56	702	JAseeUR16	244	500	0
060309	11:56	702	UR16 century	245	3197	century
060309	11:56	702	JAUR16	246	866	1
060309	11:56	702	JAseeUR108	247	500	0
060309	11:56	702	UR108 shield	248	2578	shield
060309	11:56	702	JAUR108	249	891	1
060309	11:56	702	JAseeHL12	250	500	0
060309	11:56	702	HL12 space	251	1922	space
060309	11:56	702	JAHL12	252	2103	7
060309	11:56	702	JAseeUR23	253	500	0
060309	11:56	702	UR23 abundance	254	4154	absence
060309	11:56	702	JAUR23	255	2117	1
060309	11:56	702	JAseeUR104	256	500	0
060309	11:56	702	UR104 aardvark	257	8415	awkward
060309	11:56	702	JAUR104	258	696	1
060309	11:56	702	JAseeUR56	259	500	0
060309	11:56	702	UR56 antler	260	3848	anxiety
060309	11:56	702	JAUR56	261	921	1
060309	11:56	702	JAseeHL16	262	500	0
060309	11:56	702	HL16 broom	263	2359	broom
060309	11:56	702	JAHL16	264	1344	2
060309	11:56	702	JAseeHL40	265	500	0
060309	11:56	702	HL40 temperature	266	3852	temperature
060309	11:56	702	JAHL40	267	1284	6
060309	11:56	702	JAseeUR101	268	500	0
060309	11:56	702	UR101 beard	269	2051	bread
060309	11:56	702	JAUR101	270	1130	1
060309	11:56	702	JAseeLH45	271	500	0
060309	11:56	702	LH45 intellect	272	4039	intellect
060309	11:56	702	JALH45	273	1928	2
060309	11:56	702	JAseeUR92	274	500	0
060309	11:56	702	UR92 dart	275	2834	dart
060309	11:56	702	JAUR92	276	1471	1
060309	11:56	702	JAseeUR19	277	500	0
060309	11:56	702	UR19 bison	278	3253	bishop
060309	11:56	702	JAUR19	279	895	1
060309	11:56	702	JAseeUR99	280	500	0
060309	11:56	702	UR99 branch	281	5055	branch
060309	11:56	702	JAUR99	282	1387	1
060309	11:56	702	JAseeUR10	283	500	0
060309	11:56	702	UR10 tribe	284	2204	tribe
060309	11:56	702	JAUR10	285	1629	1
060309	11:56	702	JAseeUR72	286	500	0
060309	11:56	702	UR72 band	287	3700	brand
060309	11:56	702	JAUR72	288	9555	1
060309	11:56	702	JAseeUR100	289	500	0
060309	11:56	702	UR100 comb	290	4520	comb
060309	11:56	702	JAUR100	291	539	1
060309	11:56	702	JAseeLH26	292	500	0
060309	11:56	702	LH26 center	293	2050	center
060309	11:56	702	JALH26	294	1025	1
060309	11:56	702	JAseeUR03	295	500	0
060309	11:56	702	UR03 vehicle	296	4963	vehicle
060309	11:56	702	JAUR03	297	211	9
060309	11:56	702	JAseeHL22	298	500	0
060309	11:56	702	HL22 problem	299	2848	problem
060309	11:56	702	JAHL22	300	973	1
060309	11:56	702	JAseeLH15	301	500	0
060309	11:56	702	LH15 blessing	302	4200	blessing
060309	11:56	702	JALH15	303	546	1
060309	11:56	702	JAseeHL27	304	500	0
060309	11:56	702	HL27 rain	305	3672	brain
060309	11:56	702	JAHL27	306	817	1
060309	11:56	702	JAseeHL02	307	500	0
060309	11:56	702	HL02 flower	308	5164	flower
060309	11:56	702	JAHL02	309	1923	2
060309	11:56	702	JAseeLH41	310	500	0
060309	11:56	702	LH41 girl	311	2517	girl
060309	11:56	702	JALH41	312	1232	1
060309	11:56	702	JAseeHL13	313	500	0
060309	11:56	702	HL13 map	314	3649	map
060309	11:56	702	JAHL13	315	2378	6
060309	11:56	702	JAseeUR97	316	500	0
060309	11:56	702	UR97 banner	317	1921	banner
060309	11:56	702	JAUR97	318	1286	2
060309	11:56	702	JAseeLH40	319	500	0
060309	11:56	702	LH40 field	320	2292	field
060309	11:56	702	JALH40	321	920	1
060309	11:56	702	JAseeUR51	322	500	0
060309	11:56	702	UR51 cabbage	323	3582	cabbage
060309	11:56	702	JAUR51	324	1418	1
060309	11:56	702	JAseeUR12	325	500	0
060309	11:56	702	UR12 unicorn	326	3371	unicorn
060309	11:56	702	JAUR12	327	1153	1
date	time	subject	trialcode	trialnum	latency	response
060409	12:56	704	JSseePR17	1	500	0
060409	12:56	704	PR17 emerald	2	24001	emerald
060409	12:56	704	JSPR17	3	33954	5
060409	12:56	704	JSseePR27	4	500	0
060409	12:56	704	PR27 wheat	5	19830	plus
060409	12:56	704	JSPR27	6	6381	4
060409	12:56	704	JSseePR07	7	500	0
060409	12:56	704	PR07 bog	8	24109	plus
060409	12:56	704	JSPR07	9	7921	6
060409	12:56	704	JSseePR23	10	500	0
060409	12:56	704	PR23 companion	11	15694	plus sign
060409	12:56	704	JSPR23	12	5081	5
060409	12:56	704	JSseePR06	13	500	0
060409	12:56	704	PR06 beast	14	6842	beauty
060409	12:56	704	JSPR06	15	7063	3
060409	12:56	704	JSseePR09	16	500	0
060409	12:56	704	PR09 album	17	4169	alarm
060409	12:56	704	JSPR09	18	5468	5
060409	12:56	704	JSseePR21	19	500	0
060409	12:56	704	PR21 innocence	20	5324	innocence
060409	12:56	704	JSPR21	21	5596	2
060409	12:56	704	JSseePR01	22	500	0
060409	12:56	704	PR01 cash	23	4086	cash
060409	12:56	704	JSPR01	24	3077	5
060409	12:56	704	JSseePR11	25	500	0
060409	12:56	704	PR11 ounce	26	3428	once
060409	12:56	704	JSPR11	27	4151	6
060409	12:56	704	JSseePR25	28	500	0
060409	12:56	704	PR25 saliva	29	4496	saliva
060409	12:56	704	JSPR25	30	5909	7
060409	12:56	704	JSseePR30	31	500	0
060409	12:56	704	PR30 maiden	32	7921	maiden
060409	12:56	704	JSPR30	33	4288	5
060409	12:56	704	JSseePR03	34	500	0
060409	12:56	704	PR03 acre	35	5475	nut
060409	12:56	704	JSPR03	36	5965	8
060409	12:56	704	JSseePR13	37	500	0
060409	12:56	704	PR13 ambition	38	3959	ambition
060409	12:56	704	JSPR13	39	7019	3
060409	12:56	704	JSseePR04	40	500	0
060409	12:56	704	PR04 diaper	41	3359	diaper
060409	12:56	704	JSPR04	42	3165	5
060409	12:56	704	JSseePR28	43	500	0
060409	12:56	704	PR28 challenge	44	4321	challenge
060409	12:56	704	JSPR28	45	3797	6
060409	12:56	704	JSseeUR42	1	500	0
060409	12:56	704	UR42 sergeant	2	5257	service
060409	12:56	704	JSUR42	3	5581	9
060409	12:56	704	JSseeUR52	4	500	0
060409	12:56	704	UR52 knight	5	4256	knight
060409	12:56	704	JSUR52	6	7262	2
060409	12:56	704	JSseeLH01	7	500	0
060409	12:56	704	LH01 brain	8	3904	brain
060409	12:56	704	JSLH01	9	3846	8
060409	12:56	704	JSseeHL45	10	500	0
060409	12:56	704	HL45 words	11	5292	word
060409	12:56	704	JSHL45	12	5926	5
060409	12:56	704	JSseeLH03	13	500	0
060409	12:56	704	LH03 yard	14	3033	yard
060409	12:56	704	JSLH03	15	6181	5
060409	12:56	704	JSseeHL21	16	500	0
060409	12:56	704	HL21 empire	17	6750	greek
060409	12:56	704	JSHL21	18	4256	4
060409	12:56	704	JSseeLH38	19	500	0
060409	12:56	704	LH38 paint	20	3564	paint
060409	12:56	704	JSLH38	21	3553	5
060409	12:56	704	JSseeLH43	22	500	0
060409	12:56	704	LH43 noise	23	2837	oak
060409	12:56	704	JSLH43	24	3930	6
060409	12:56	704	JSseeLH37	25	500	0
060409	12:56	704	LH37 pad	26	3252	pill
060409	12:56	704	JSLH37	27	3471	5
060409	12:56	704	JSseeHL07	28	500	0
060409	12:56	704	HL07 king	29	2926	king
060409	12:56	704	JSHL07	30	4287	7
060409	12:56	704	JSseeHL39	31	500	0
060409	12:56	704	HL39 book	32	2762	book
060409	12:56	704	JSHL39	33	3866	7
060409	12:56	704	JSseeLH24	34	500	0
060409	12:56	704	LH24 feeling	35	4176	feeling
060409	12:56	704	JSLH24	36	3282	5
060409	12:56	704	JSseeHL42	37	500	0
060409	12:56	704	HL42 pie	38	2921	pie
060409	12:56	704	JSHL42	39	3210	6
060409	12:56	704	JSseeUR30	40	500	0
060409	12:56	704	UR30 lover	41	2956	lover
060409	12:56	704	JSUR30	42	4612	1
060409	12:56	704	JSseeUR95	43	500	0
060409	12:56	704	UR95 fool	44	3897	fool
060409	12:56	704	JSUR95	45	2472	8
060409	12:56	704	JSseeLH20	46	500	0
060409	12:56	704	LH20 violation	47	4275	violation
060409	12:56	704	JSLH20	48	3049	5
060409	12:56	704	JSseeUR96	49	500	0
060409	12:56	704	UR96 dessert	50	9314	passion
060409	12:56	704	JSUR96	51	5356	3
060409	12:56	704	JSseeUR66	52	500	0
060409	12:56	704	UR66 chief	53	4176	chef
060409	12:56	704	JSUR66	54	3187	1
060409	12:56	704	JSseeHL17	55	500	0
060409	12:56	704	HL17 soap	56	5502	bath
060409	12:56	704	JSHL17	57	3935	6
060409	12:56	704	JSseeUR06	58	500	0
060409	12:56	704	UR06 cello	59	4033	hot
060409	12:56	704	JSUR06	60	4194	4
060409	12:56	704	JSseeLH32	61	500	0
060409	12:56	704	LH32 capacity	62	4153	capacity
060409	12:56	704	JSLH32	63	3804	5
060409	12:56	704	JSseeUR103	64	500	0
060409	12:56	704	UR103 hula	65	6828	laugh
060409	12:56	704	JSUR103	66	3419	6
060409	12:56	704	JSseeHL23	67	500	0
060409	12:56	704	HL23 baby	68	2644	baby
060409	12:56	704	JSHL23	69	2841	8
060409	12:56	704	JSseeUR63	70	500	0
060409	12:56	704	UR63 alley	71	3052	alley
060409	12:56	704	JSUR63	72	3863	3
060409	12:56	704	JSseeLH11	73	500	0
060409	12:56	704	LH11 cancer	74	3613	cancer
060409	12:56	704	JSLH11	75	3375	5
060409	12:56	704	JSseeHL03	76	500	0
060409	12:56	704	HL03 cigarette	77	7083	cigarette
060409	12:56	704	JSHL03	78	3182	6
060409	12:56	704	JSseeUR28	79	500	0
060409	12:56	704	UR28 bang	80	3401	gang
060409	12:56	704	JSUR28	81	3222	9
060409	12:56	704	JSseeLH04	82	500	0
060409	12:56	704	LH04 grade	83	3096	grade
060409	12:56	704	JSLH04	84	3281	6
060409	12:56	704	JSseeHL01	85	500	0
060409	12:56	704	HL01 elephant	86	3784	elephant
060409	12:56	704	JSHL01	87	3475	8
060409	12:56	704	JSseeLH27	88	500	0
060409	12:56	704	LH27 condition	89	5354	condition
060409	12:56	704	JSLH27	90	3017	9
060409	12:56	704	JSseeLH51	91	500	0
060409	12:56	704	LH51 exit	92	3355	plug
060409	12:56	704	JSLH51	93	3162	7
060409	12:56	704	JSseeLH07	94	500	0
060409	12:56	704	LH07 rear	95	2758	rear
060409	12:56	704	JSLH07	96	8663	9
060409	12:56	704	JSseeHL41	97	500	0
060409	12:56	704	HL41 hand	98	3195	hand
060409	12:56	704	JSHL41	99	3056	2
060409	12:56	704	JSseeUR50	100	500	0
060409	12:56	704	UR50 crane	101	2833	cane
060409	12:56	704	JSUR50	102	13574	1
060409	12:56	704	JSseeUR76	103	500	0
060409	12:56	704	UR76 dignity	104	3476	digital
060409	12:56	704	JSUR76	105	4077	5
060409	12:56	704	JSseeUR69	106	500	0
060409	12:56	704	UR69 flashlight	107	4874	flashlight
060409	12:56	704	JSUR69	108	3134	6
060409	12:56	704	JSseeUR85	109	500	0
060409	12:56	704	UR85 stroke	110	4955	stroke
060409	12:56	704	JSUR85	111	3275	3
060409	12:56	704	JSseeHL47	112	500	0
060409	12:56	704	HL47 horse	113	4779	horse
060409	12:56	704	JSHL47	114	3772	5
060409	12:56	704	JSseeHL49	115	500	0
060409	12:56	704	HL49 spice	116	3253	spice
060409	12:56	704	JSHL49	117	2880	7
060409	12:56	704	JSseeUR22	118	500	0
060409	12:56	704	UR22 thesaurus	119	4912	third
060409	12:56	704	JSUR22	120	4219	2
060409	12:56	704	JSseeLH25	121	500	0
060409	12:56	704	LH25 track	122	3385	track
060409	12:56	704	JSLH25	123	3950	6
060409	12:56	704	JSseeUR82	124	500	0
060409	12:56	704	UR82 campus	125	3816	champ
060409	12:56	704	JSUR82	126	5433	8
060409	12:56	704	JSseeLH02	127	500	0
060409	12:56	704	LH02 harm	128	3483	harm
060409	12:56	704	JSLH02	129	2611	7
060409	12:56	704	JSseeLH14	130	500	0
060409	12:56	704	LH14 note	131	2775	note
060409	12:56	704	JSLH14	132	3983	1
060409	12:56	704	JSseeUR70	133	500	0
060409	12:56	704	UR70 pajamas	134	4087	pajama
060409	12:56	704	JSUR70	135	3261	6
060409	12:56	704	JSseeHL31	136	500	0
060409	12:56	704	HL31 war	137	2917	war
060409	12:56	704	JSHL31	138	3446	5
060409	12:56	704	JSseeLH50	139	500	0
060409	12:56	704	LH50 measure	140	4022	measure
060409	12:56	704	JSLH50	141	4175	6
060409	12:56	704	JSseeUR60	142	500	0
060409	12:56	704	UR60 plaque	143	4223	plaque
060409	12:56	704	JSUR60	144	1824	5
060409	12:56	704	JSseeUR68	145	500	0
060409	12:56	704	UR68 fatigue	146	4758	fatigue
060409	12:56	704	JSUR68	147	2759	5
060409	12:56	704	JSseeUR20	148	500	0
060409	12:56	704	UR20 climax	149	4053	climax
060409	12:56	704	JSUR20	150	3868	7
060409	12:56	704	JSseeHL09	151	500	0
060409	12:56	704	HL09 chalk	152	3074	chalk
060409	12:56	704	JSHL09	153	2965	8
060409	12:56	704	JSseeLH09	154	500	0
060409	12:56	704	LH09 piece	155	3041	piece
060409	12:56	704	JSLH09	156	3582	5
060409	12:56	704	JSseeUR27	157	500	0
060409	12:56	704	UR27 consequence	158	4871	consequence
060409	12:56	704	JSUR27	159	3275	7
060409	12:56	704	JSseeLH30	160	500	0
060409	12:56	704	LH30 assignment	161	3891	assignment
060409	12:56	704	JSLH30	162	3586	3
060409	12:56	704	JSseeUR67	163	500	0
060409	12:56	704	UR67 producer	164	4436	produce
060409	12:56	704	JSUR67	165	4211	2
060409	12:56	704	JSseeUR13	166	500	0
060409	12:56	704	UR13 almanac	167	9945	animal
060409	12:56	704	JSUR13	168	3288	7
060409	12:56	704	JSseeUR107	169	500	0
060409	12:56	704	UR107 cocaine	170	4271	corner
060409	12:56	704	JSUR107	171	2237	8
060409	12:56	704	JSseeUR65	172	500	0
060409	12:56	704	UR65 checkers	173	3962	checkers
060409	12:56	704	JSUR65	174	3806	7
060409	12:56	704	JSseeUR59	175	500	0
060409	12:56	704	UR59 copper	176	2534	paper
060409	12:56	704	JSUR59	177	3193	6
060409	12:56	704	JSseeHL53	178	500	0
060409	12:56	704	HL53 fish	179	5188	boat
060409	12:56	704	JSHL53	180	2458	6
060409	12:56	704	JSseeUR47	181	500	0
060409	12:56	704	UR47 chimpanzee	182	7565	chimp
060409	12:56	704	JSUR47	183	4699	2
060409	12:56	704	JSseeUR58	184	500	0
060409	12:56	704	UR58 answer	185	7796	ankle
060409	12:56	704	JSUR58	186	3960	6
060409	12:56	704	JSseeLH53	187	500	0
060409	12:56	704	LH53 core	188	2922	core
060409	12:56	704	JSLH53	189	3243	1
060409	12:56	704	JSseeUR105	190	500	0
060409	12:56	704	UR105 curtain	191	3595	curtain
060409	12:56	704	JSUR105	192	3263	3
060409	12:56	704	JSseeHL05	193	500	0
060409	12:56	704	HL05 mountain	194	3878	mountain
060409	12:56	704	JSHL05	195	6974	4
060409	12:56	704	JSseeUR64	196	500	0
060409	12:56	704	UR64 fist	197	3948	first
060409	12:56	704	JSUR64	198	3680	1
060409	12:56	704	JSseeUR32	199	500	0
060409	12:56	704	UR32 navigator	200	5125	navigator
060409	12:56	704	JSUR32	201	2710	2
060409	12:56	704	JSseeUR04	202	500	0
060409	12:56	704	UR04 marsh	203	3934	march
060409	12:56	704	JSUR04	204	2827	5
060409	12:56	704	JSseeHL34	205	500	0
060409	12:56	704	HL34 hunger	206	4390	hunger
060409	12:56	704	JSHL34	207	2887	8
060409	12:56	704	JSseeUR106	208	500	0
060409	12:56	704	UR106 eagle	209	4623	eagle
060409	12:56	704	JSUR106	210	4094	5
060409	12:56	704	JSseeUR77	211	500	0
060409	12:56	704	UR77 uncle	212	5002	uncle
060409	12:56	704	JSUR77	213	2480	8
060409	12:56	704	JSseeUR35	214	500	0
060409	12:56	704	UR35 cause	215	4114	castle
060409	12:56	704	JSUR35	216	9495	8
060409	12:56	704	JSseeHL43	217	500	0
060409	12:56	704	HL43 money	218	2671	money
060409	12:56	704	JSHL43	219	2675	5
060409	12:56	704	JSseeLH23	220	500	0
060409	12:56	704	LH23 possibility	221	6036	possibility
060409	12:56	704	JSLH23	222	3974	5
060409	12:56	704	JSseeUR36	223	500	0
060409	12:56	704	UR36 denim	224	4078	denial
060409	12:56	704	JSUR36	225	4166	2
060409	12:56	704	JSseeHL24	226	500	0
060409	12:56	704	HL24 eye	227	3574	eye
060409	12:56	704	JSHL24	228	3027	4
060409	12:56	704	JSseeLH22	229	500	0
060409	12:56	704	LH22 crowd	230	4021	crowd
060409	12:56	704	JSLH22	231	4982	7
060409	12:56	704	JSseeLH05	232	500	0
060409	12:56	704	LH05 chain	233	2811	chain
060409	12:56	704	JSLH05	234	2105	6
060409	12:56	704	JSseeUR45	235	500	0
060409	12:56	704	UR45 bridge	236	3627	bridge
060409	12:56	704	JSUR45	237	4006	7
060409	12:56	704	JSseeHL33	238	500	0
060409	12:56	704	HL33 joke	239	2390	joke
060409	12:56	704	JSHL33	240	5246	6
060409	12:56	704	JSseeUR14	241	500	0
060409	12:56	704	UR14 fudge	242	5272	fugitive
060409	12:56	704	JSUR14	243	4466	8
060409	12:56	704	JSseeUR46	244	500	0
060409	12:56	704	UR46 content	245	3037	content
060409	12:56	704	JSUR46	246	2746	8
060409	12:56	704	JSseeUR78	247	500	0
060409	12:56	704	UR78 blender	248	3440	blender
060409	12:56	704	JSUR78	249	4555	8
060409	12:56	704	JSseeUR62	250	500	0
060409	12:56	704	UR62 chemistry	251	4826	chemistry
060409	12:56	704	JSUR62	252	11880	8
060409	12:56	704	JSseeUR75	253	500	0
060409	12:56	704	UR75 awe	254	3736	awe
060409	12:56	704	JSUR75	255	2813	1
060409	12:56	704	JSseeLH46	256	500	0
060409	12:56	704	LH46 submarine	257	4601	submarine
060409	12:56	704	JSLH46	258	6504	3
060409	12:56	704	JSseeLH17	259	500	0
060409	12:56	704	LH17 life	260	2347	life
060409	12:56	704	JSLH17	261	2853	5
060409	12:56	704	JSseeUR21	262	500	0
060409	12:56	704	UR21 ore	263	5159	bell
060409	12:56	704	JSUR21	264	3711	6
060409	12:56	704	JSseeUR17	265	500	0
060409	12:56	704	UR17 trance	266	3427	chance
060409	12:56	704	JSUR17	267	4271	5
060409	12:56	704	JSseeUR98	268	500	0
060409	12:56	704	UR98 latch	269	6490	volcano
060409	12:56	704	JSUR98	270	3336	4
060409	12:56	704	JSseeHL36	271	500	0
060409	12:56	704	HL36 football	272	3708	football
060409	12:56	704	JSHL36	273	3235	1
060409	12:56	704	JSseeHL32	274	500	0
060409	12:56	704	HL32 television	275	4284	television
060409	12:56	704	JSHL32	276	6914	2
060409	12:56	704	JSseeLH19	277	500	0
060409	12:56	704	LH19 snob	278	4162	snob
060409	12:56	704	JSLH19	279	2846	6
060409	12:56	704	JSseeHL51	280	500	0
060409	12:56	704	HL51 color	281	5192	color
060409	12:56	704	JSHL51	282	2222	4
060409	12:56	704	JSseeHL50	283	500	0
060409	12:56	704	HL50 doctor	284	3387	doctor
060409	12:56	704	JSHL50	285	10032	9
060409	12:56	704	JSseeUR53	286	500	0
060409	12:56	704	UR53 hell	287	3769	shell
060409	12:56	704	JSUR53	288	3149	4
060409	12:56	704	JSseeUR87	289	500	0
060409	12:56	704	UR87 duty	290	12186	santa
060409	12:56	704	JSUR87	291	2422	7
060409	12:56	704	JSseeHL25	292	500	0
060409	12:56	704	HL25 cut	293	2067	cut
060409	12:56	704	JSHL25	294	2226	5
060409	12:56	704	JSseeHL14	295	500	0
060409	12:56	704	HL14 milk	296	2583	milk
060409	12:56	704	JSHL14	297	2551	5
060409	12:56	704	JSseeHL10	298	500	0
060409	12:56	704	HL10 cow	299	4302	cow
060409	12:56	704	JSHL10	300	2491	5
060409	12:56	704	JSseeUR01	301	500	0
060409	12:56	704	UR01 file	302	3612	file
060409	12:56	704	JSUR01	303	3215	2
060409	12:56	704	JSseeUR55	304	500	0
060409	12:56	704	UR55 bargain	305	5080	bargain
060409	12:56	704	JSUR55	306	4796	6
060409	12:56	704	JSseeUR07	307	500	0
060409	12:56	704	UR07 gathering	308	4441	bandage
060409	12:56	704	JSUR07	309	3600	8
060409	12:56	704	JSseeUR74	310	500	0
060409	12:56	704	UR74 suitcase	311	6993	sunrise
060409	12:56	704	JSUR74	312	3824	8
060409	12:56	704	JSseeUR34	313	500	0
060409	12:56	704	UR34 charity	314	3279	charity
060409	12:56	704	JSUR34	315	2833	4
060409	12:56	704	JSseeLH54	316	500	0
060409	12:56	704	LH54 limit	317	3203	limit
060409	12:56	704	JSLH54	318	4600	7
060409	12:56	704	JSseeUR54	319	500	0
060409	12:56	704	UR54 steam	320	5510	steam
060409	12:56	704	JSUR54	321	4870	1
060409	12:56	704	JSseeUR24	322	500	0
060409	12:56	704	UR24 kid	323	2727	kid
060409	12:56	704	JSUR24	324	2937	6
060409	12:56	704	JAseePR26	1	500	0
060409	12:56	704	PR26 colonel	2	5896	man
060409	12:56	704	JAPR26	3	16231	8
060409	12:56	704	JAseePR24	4	500	0
060409	12:56	704	PR24 pest	5	4649	phase
060409	12:56	704	JAPR24	6	7807	6
060409	12:56	704	JAseePR08	7	500	0
060409	12:56	704	PR08 beef	8	3824	bee
060409	12:56	704	JAPR08	9	8818	9
060409	12:56	704	JAseePR05	10	500	0
060409	12:56	704	PR05 calf	11	4336	calendar
060409	12:56	704	JAPR05	12	2811	7
060409	12:56	704	JAseePR14	13	500	0
060409	12:56	704	PR14 religion	14	7166	religion
060409	12:56	704	JAPR14	15	8334	8
060409	12:56	704	JAseePR19	16	500	0
060409	12:56	704	PR19 void	17	6144	vow
060409	12:56	704	JAPR19	18	1829	7
060409	12:56	704	JAseePR12	19	500	0
060409	12:56	704	PR12 royalty	20	5451	royalty
060409	12:56	704	JAPR12	21	6406	4
060409	12:56	704	JAseePR02	22	500	0
060409	12:56	704	PR02 wrinkle	23	7077	week
060409	12:56	704	JAPR02	24	5272	6
060409	12:56	704	JAseePR10	25	500	0
060409	12:56	704	PR10 camel	26	2688	camera
060409	12:56	704	JAPR10	27	2548	9
060409	12:56	704	JAseePR15	28	500	0
060409	12:56	704	PR15 depletion	29	5739	sweat
060409	12:56	704	JAPR15	30	6393	5
060409	12:56	704	JAseePR20	31	500	0
060409	12:56	704	PR20 advertisement	32	4808	advise
060409	12:56	704	JAPR20	33	1615	7
060409	12:56	704	JAseePR29	34	500	0
060409	12:56	704	PR29 mermaid	35	5375	meteroid
060409	12:56	704	JAPR29	36	3765	8
060409	12:56	704	JAseePR16	37	500	0
060409	12:56	704	PR16 compulsion	38	5038	compliment
060409	12:56	704	JAPR16	39	3051	6
060409	12:56	704	JAseePR22	40	500	0
060409	12:56	704	PR22 ass	41	3964	cement
060409	12:56	704	JAPR22	42	3360	9
060409	12:56	704	JAseeUR43	1	500	0
060409	12:56	704	UR43 balloon	2	4280	balloon
060409	12:56	704	JAUR43	3	5239	6
060409	12:56	704	JAseeUR102	4	500	0
060409	12:56	704	UR102 velocity	5	4888	velocity
060409	12:56	704	JAUR102	6	3579	8
060409	12:56	704	JAseeHL08	7	500	0
060409	12:56	704	HL08 math	8	4949	math
060409	12:56	704	JAHL08	9	2526	6
060409	12:56	704	JAseeLH13	10	500	0
060409	12:56	704	LH13 crease	11	3638	stitch
060409	12:56	704	JALH13	12	696	9
060409	12:56	704	JAseeLH08	13	500	0
060409	12:56	704	LH08 house	14	4008	house
060409	12:56	704	JALH08	15	5186	7
060409	12:56	704	JAseeUR71	16	500	0
060409	12:56	704	UR71 padding	17	4101	paddle
060409	12:56	704	JAUR71	18	6603	6
060409	12:56	704	JAseeUR25	19	500	0
060409	12:56	704	UR25 partner	20	7890	pasta
060409	12:56	704	JAUR25	21	4562	7
060409	12:56	704	JAseeLH47	22	500	0
060409	12:56	704	LH47 detergent	23	3801	detergent
060409	12:56	704	JALH47	24	2284	7
060409	12:56	704	JAseeLH36	25	500	0
060409	12:56	704	LH36 gang	26	3167	gang
060409	12:56	704	JALH36	27	5325	5
060409	12:56	704	JAseeHL15	28	500	0
060409	12:56	704	HL15 bomb	29	3483	bomb
060409	12:56	704	JAHL15	30	1100	5
060409	12:56	704	JAseeUR84	31	500	0
060409	12:56	704	UR84 flag	32	2458	flag
060409	12:56	704	JAUR84	33	4591	4
060409	12:56	704	JAseeHL29	34	500	0
060409	12:56	704	HL29 ring	35	2501	ring
060409	12:56	704	JAHL29	36	4513	5
060409	12:56	704	JAseeLH29	37	500	0
060409	12:56	704	LH29 closet	38	3810	closet
060409	12:56	704	JALH29	39	1821	4
060409	12:56	704	JAseeLH52	40	500	0
060409	12:56	704	LH52 bureau	41	3651	bureau
060409	12:56	704	JALH52	42	7813	6
060409	12:56	704	JAseeLH48	43	500	0
060409	12:56	704	LH48 outcome	44	7158	count
060409	12:56	704	JALH48	45	5222	6
060409	12:56	704	JAseeUR29	46	500	0
060409	12:56	704	UR29 patrol	47	4232	patrol
060409	12:56	704	JAUR29	48	6760	7
060409	12:56	704	JAseeLH28	49	500	0
060409	12:56	704	LH28 vagrant	50	7503	vagrant
060409	12:56	704	JALH28	51	4793	8
060409	12:56	704	JAseeHL52	52	500	0
060409	12:56	704	HL52 sand	53	5782	sand
060409	12:56	704	JAHL52	54	9370	9
060409	12:56	704	JAseeHL44	55	500	0
060409	12:56	704	HL44 baseball	56	5031	baseball
060409	12:56	704	JAHL44	57	2869	3
060409	12:56	704	JAseeUR37	58	500	0
060409	12:56	704	UR37 cloth	59	2814	cloth
060409	12:56	704	JAUR37	60	2204	5
060409	12:56	704	JAseeUR81	61	500	0
060409	12:56	704	UR81 acid	62	5970	college
060409	12:56	704	JAUR81	63	3566	8
060409	12:56	704	JAseeUR88	64	500	0
060409	12:56	704	UR88 circus	65	3793	county
060409	12:56	704	JAUR88	66	3148	6
060409	12:56	704	JAseeLH34	67	500	0
060409	12:56	704	LH34 panel	68	2873	panel
060409	12:56	704	JALH34	69	6013	7
060409	12:56	704	JAseeHL54	70	500	0
060409	12:56	704	HL54 indian	71	2948	indian
060409	12:56	704	JAHL54	72	6916	5
060409	12:56	704	JAseeUR48	73	500	0
060409	12:56	704	UR48 democracy	74	6197	democracy
060409	12:56	704	JAUR48	75	8567	3
060409	12:56	704	JAseeUR40	76	500	0
060409	12:56	704	UR40 dancer	77	3391	dancer
060409	12:56	704	JAUR40	78	2756	9
060409	12:56	704	JAseeHL38	79	500	0
060409	12:56	704	HL38 boat	80	2458	boat
060409	12:56	704	JAHL38	81	2495	4
060409	12:56	704	JAseeLH18	82	500	0
060409	12:56	704	LH18 edge	83	3977	edge
060409	12:56	704	JALH18	84	2548	5
060409	12:56	704	JAseeUR89	85	500	0
060409	12:56	704	UR89 crow	86	8571	road
060409	12:56	704	JAUR89	87	3006	8
060409	12:56	704	JAseeUR18	88	500	0
060409	12:56	704	UR18 relief	89	3545	belief
060409	12:56	704	JAUR18	90	3399	7
060409	12:56	704	JAseeUR80	91	500	0
060409	12:56	704	UR80 antique	92	5321	antedote
060409	12:56	704	JAUR80	93	5457	9
060409	12:56	704	JAseeUR15	94	500	0
060409	12:56	704	UR15 compass	95	4385	compassion
060409	12:56	704	JAUR15	96	2434	2
060409	12:56	704	JAseeUR08	97	500	0
060409	12:56	704	UR08 assistant	98	4606	assistant
060409	12:56	704	JAUR08	99	7630	3
060409	12:56	704	JAseeUR94	100	500	0
060409	12:56	704	UR94 bristle	101	5103	brief
060409	12:56	704	JAUR94	102	7321	3
060409	12:56	704	JAseeUR61	103	500	0
060409	12:56	704	UR61 suicide	104	4152	suicide
060409	12:56	704	JAUR61	105	4363	3
060409	12:56	704	JAseeUR05	106	500	0
060409	12:56	704	UR05 lease	107	3083	fall
060409	12:56	704	JAUR05	108	3981	4
060409	12:56	704	JAseeHL28	109	500	0
060409	12:56	704	HL28 bird	110	4045	bird
060409	12:56	704	JAHL28	111	2022	2
060409	12:56	704	JAseeUR73	112	500	0
060409	12:56	704	UR73 kite	113	4548	cry
060409	12:56	704	JAUR73	114	5006	4
060409	12:56	704	JAseeUR79	115	500	0
060409	12:56	704	UR79 beetle	116	3962	beet
060409	12:56	704	JAUR79	117	1822	3
060409	12:56	704	JAseeUR31	118	500	0
060409	12:56	704	UR31 diameter	119	4036	diameter
060409	12:56	704	JAUR31	120	6125	4
060409	12:56	704	JAseeUR26	121	500	0
060409	12:56	704	UR26 eternity	122	11232	eternity
060409	12:56	704	JAUR26	123	4574	6
060409	12:56	704	JAseeLH21	124	500	0
060409	12:56	704	LH21 monument	125	4157	monument
060409	12:56	704	JALH21	126	2456	5
060409	12:56	704	JAseeHL48	127	500	0
060409	12:56	704	HL48 airplane	128	4251	airplane
060409	12:56	704	JAHL48	129	1442	3
060409	12:56	704	JAseeLH10	130	500	0
060409	12:56	704	LH10 care	131	3370	careful
060409	12:56	704	JALH10	132	5391	6
060409	12:56	704	JAseeLH31	133	500	0
060409	12:56	704	LH31 self	134	3258	self
060409	12:56	704	JALH31	135	7357	8
060409	12:56	704	JAseeUR38	136	500	0
060409	12:56	704	UR38 energy	137	4570	energy
060409	12:56	704	JAUR38	138	5300	4
060409	12:56	704	JAseeUR86	139	500	0
060409	12:56	704	UR86 boulevard	140	5251	boulevard
060409	12:56	704	JAUR86	141	4687	9
060409	12:56	704	JAseeUR90	142	500	0
060409	12:56	704	UR90 sailing	143	4128	sail
060409	12:56	704	JAUR90	144	3917	9
060409	12:56	704	JAseeHL30	145	500	0
060409	12:56	704	HL30 air	146	6488	fuss
060409	12:56	704	JAHL30	147	4590	7
060409	12:56	704	JAseeUR57	148	500	0
060409	12:56	704	UR57 benefit	149	7028	benefit
060409	12:56	704	JAUR57	150	6770	9
060409	12:56	704	JAseeLH12	151	500	0
060409	12:56	704	LH12 addition	152	5648	addition
060409	12:56	704	JALH12	153	2811	8
060409	12:56	704	JAseeHL04	154	500	0
060409	12:56	704	HL04 beer	155	3806	beer
060409	12:56	704	JAHL04	156	5241	8
060409	12:56	704	JAseeUR11	157	500	0
060409	12:56	704	UR11 foundation	158	3882	foundation
060409	12:56	704	JAUR11	159	3617	6
060409	12:56	704	JAseeLH33	160	500	0
060409	12:56	704	LH33 fable	161	2442	fable
060409	12:56	704	JALH33	162	2136	7
060409	12:56	704	JAseeHL11	163	500	0
060409	12:56	704	HL11 rock	164	2465	rock
060409	12:56	704	JAHL11	165	2894	5
060409	12:56	704	JAseeLH06	166	500	0
060409	12:56	704	LH06 element	167	2958	element
060409	12:56	704	JALH06	168	3206	5
060409	12:56	704	JAseeHL37	169	500	0
060409	12:56	704	HL37 thread	170	3480	thread
060409	12:56	704	JAHL37	171	2801	1
060409	12:56	704	JAseeLH44	172	500	0
060409	12:56	704	LH44 vessel	173	5749	vessel
060409	12:56	704	JALH44	174	5947	6
060409	12:56	704	JAseeLH39	175	500	0
060409	12:56	704	LH39 reward	176	4621	reward
060409	12:56	704	JALH39	177	3532	8
060409	12:56	704	JAseeLH49	178	500	0
060409	12:56	704	LH49 kindness	179	5128	kindness
060409	12:56	704	JALH49	180	3209	5
060409	12:56	704	JAseeUR39	181	500	0
060409	12:56	704	UR39 faith	182	2556	faith
060409	12:56	704	JAUR39	183	2213	7
060409	12:56	704	JAseeUR33	184	500	0
060409	12:56	704	UR33 horror	185	3571	horror
060409	12:56	704	JAUR33	186	2624	4
060409	12:56	704	JAseeUR02	187	500	0
060409	12:56	704	UR02 comma	188	3187	coma
060409	12:56	704	JAUR02	189	4593	7
060409	12:56	704	JAseeUR93	190	500	0
060409	12:56	704	UR93 catcher	191	4511	catcher
060409	12:56	704	JAUR93	192	7155	4
060409	12:56	704	JAseeHL19	193	500	0
060409	12:56	704	HL19 car	194	2905	car
060409	12:56	704	JAHL19	195	2547	6
060409	12:56	704	JAseeUR49	196	500	0
060409	12:56	704	UR49 casket	197	5242	cash
060409	12:56	704	JAUR49	198	3590	5
060409	12:56	704	JAseeHL35	199	500	0
060409	12:56	704	HL35 cake	200	2960	cake
060409	12:56	704	JAHL35	201	3719	2
060409	12:56	704	JAseeUR44	202	500	0
060409	12:56	704	UR44 rot	203	6323	carat
060409	12:56	704	JAUR44	204	4999	5
060409	12:56	704	JAseeUR91	205	500	0
060409	12:56	704	UR91 anteater	206	4924	anteater
060409	12:56	704	JAUR91	207	1158	9
060409	12:56	704	JAseeHL46	208	500	0
060409	12:56	704	HL46 butter	209	3169	butter
060409	12:56	704	JAHL46	210	4464	4
060409	12:56	704	JAseeUR09	211	500	0
060409	12:56	704	UR09 education	212	3027	education
060409	12:56	704	JAUR09	213	4704	3
060409	12:56	704	JAseeUR83	214	500	0
060409	12:56	704	UR83 lesson	215	2969	lesson
060409	12:56	704	JAUR83	216	6224	6
060409	12:56	704	JAseeHL18	217	500	0
060409	12:56	704	HL18 paper	218	2766	paper
060409	12:56	704	JAHL18	219	5094	6
060409	12:56	704	JAseeLH16	220	500	0
060409	12:56	704	LH16 power	221	2822	power
060409	12:56	704	JALH16	222	5604	6
060409	12:56	704	JAseeHL06	223	500	0
060409	12:56	704	HL06 egg	224	5893	egg
060409	12:56	704	JAHL06	225	4557	7
060409	12:56	704	JAseeHL20	226	500	0
060409	12:56	704	HL20 wine	227	3796	wine
060409	12:56	704	JAHL20	228	3031	5
060409	12:56	704	JAseeHL26	229	500	0
060409	12:56	704	HL26 light	230	4297	light
060409	12:56	704	JAHL26	231	1198	2
060409	12:56	704	JAseeLH42	232	500	0
060409	12:56	704	LH42 thought	233	2832	thought
060409	12:56	704	JALH42	234	2717	5
060409	12:56	704	JAseeUR41	235	500	0
060409	12:56	704	UR41 chime	236	3565	cold
060409	12:56	704	JAUR41	237	2170	4
060409	12:56	704	JAseePR18	238	500	0
060409	12:56	704	PR18 clorox	239	6130	clog
060409	12:56	704	JAPR18	240	903	8
060409	12:56	704	JAseeLH35	241	500	0
060409	12:56	704	LH35 shelter	242	3686	shelter
060409	12:56	704	JALH35	243	7157	5
060409	12:56	704	JAseeUR16	244	500	0
060409	12:56	704	UR16 century	245	7811	century
060409	12:56	704	JAUR16	246	3775	4
060409	12:56	704	JAseeUR108	247	500	0
060409	12:56	704	UR108 shield	248	5569	shoe
060409	12:56	704	JAUR108	249	3183	8
060409	12:56	704	JAseeHL12	250	500	0
060409	12:56	704	HL12 space	251	2658	space
060409	12:56	704	JAHL12	252	2159	5
060409	12:56	704	JAseeUR23	253	500	0
060409	12:56	704	UR23 abundance	254	4039	abundance
060409	12:56	704	JAUR23	255	3799	5
060409	12:56	704	JAseeUR104	256	500	0
060409	12:56	704	UR104 aardvark	257	16439	aardvark
060409	12:56	704	JAUR104	258	5419	6
060409	12:56	704	JAseeUR56	259	500	0
060409	12:56	704	UR56 antler	260	5652	energy
060409	12:56	704	JAUR56	261	4527	7
060409	12:56	704	JAseeHL16	262	500	0
060409	12:56	704	HL16 broom	263	3591	broom
060409	12:56	704	JAHL16	264	1516	4
060409	12:56	704	JAseeHL40	265	500	0
060409	12:56	704	HL40 temperature	266	5072	temperature
060409	12:56	704	JAHL40	267	5267	4
060409	12:56	704	JAseeUR101	268	500	0
060409	12:56	704	UR101 beard	269	3284	bean
060409	12:56	704	JAUR101	270	877	5
060409	12:56	704	JAseeLH45	271	500	0
060409	12:56	704	LH45 intellect	272	9109	intellect
060409	12:56	704	JALH45	273	6344	5
060409	12:56	704	JAseeUR92	274	500	0
060409	12:56	704	UR92 dart	275	3410	dark
060409	12:56	704	JAUR92	276	2662	3
060409	12:56	704	JAseeUR19	277	500	0
060409	12:56	704	UR19 bison	278	3680	game
060409	12:56	704	JAUR19	279	3512	4
060409	12:56	704	JAseeUR99	280	500	0
060409	12:56	704	UR99 branch	281	7244	bran
060409	12:56	704	JAUR99	282	3353	6
060409	12:56	704	JAseeUR10	283	500	0
060409	12:56	704	UR10 tribe	284	4043	dance
060409	12:56	704	JAUR10	285	3309	6
060409	12:56	704	JAseeUR72	286	500	0
060409	12:56	704	UR72 band	287	2483	bowl
060409	12:56	704	JAUR72	288	2800	4
060409	12:56	704	JAseeUR100	289	500	0
060409	12:56	704	UR100 comb	290	3748	lock
060409	12:56	704	JAUR100	291	4329	6
060409	12:56	704	JAseeLH26	292	500	0
060409	12:56	704	LH26 center	293	2794	center
060409	12:56	704	JALH26	294	2377	5
060409	12:56	704	JAseeUR03	295	500	0
060409	12:56	704	UR03 vehicle	296	4095	vehicle
060409	12:56	704	JAUR03	297	2669	4
060409	12:56	704	JAseeHL22	298	500	0
060409	12:56	704	HL22 problem	299	5599	confused
060409	12:56	704	JAHL22	300	3284	6
060409	12:56	704	JAseeLH15	301	500	0
060409	12:56	704	LH15 blessing	302	4139	blessing
060409	12:56	704	JALH15	303	5807	7
060409	12:56	704	JAseeHL27	304	500	0
060409	12:56	704	HL27 rain	305	4455	rain
060409	12:56	704	JAHL27	306	2142	5
060409	12:56	704	JAseeHL02	307	500	0
060409	12:56	704	HL02 flower	308	4478	flower
060409	12:56	704	JAHL02	309	4011	6
060409	12:56	704	JAseeLH41	310	500	0
060409	12:56	704	LH41 girl	311	2555	girl
060409	12:56	704	JALH41	312	7020	3
060409	12:56	704	JAseeHL13	313	500	0
060409	12:56	704	HL13 map	314	10184	corner
060409	12:56	704	JAHL13	315	3845	2
060409	12:56	704	JAseeUR97	316	500	0
060409	12:56	704	UR97 banner	317	2956	band
060409	12:56	704	JAUR97	318	3603	3
060409	12:56	704	JAseeLH40	319	500	0
060409	12:56	704	LH40 field	320	2661	field
060409	12:56	704	JALH40	321	1985	5
060409	12:56	704	JAseeUR51	322	500	0
060409	12:56	704	UR51 cabbage	323	10993	carriage
060409	12:56	704	JAUR51	324	4289	4
060409	12:56	704	JAseeUR12	325	500	0
060409	12:56	704	UR12 unicorn	326	4900	spoon
060409	12:56	704	JAUR12	327	3055	6

date	time	subject	trialcode	trialnum	latency	response
060509	14:58	706	JAseePR17	1	500	0
060509	14:58	706	PR17 emerald	2	36422	oak
060509	14:58	706	JAPR17	3	17681	5
060509	14:58	706	JAseePR27	4	500	0
060509	14:58	706	PR27 wheat	5	51402	0
060509	14:58	706	JAPR27	6	5072	4
060509	14:58	706	JAseePR07	7	500	0
060509	14:58	706	PR07 bog	8	3224	blog
060509	14:58	706	JAPR07	9	3021	2
060509	14:58	706	JAseePR23	10	500	0
060509	14:58	706	PR23 companion	11	5447	nazi
060509	14:58	706	JAPR23	12	5058	3
060509	14:58	706	JAseePR06	13	500	0
060509	14:58	706	PR06 beast	14	14724	long
060509	14:58	706	JAPR06	15	2674	1
060509	14:58	706	JAseePR09	16	500	0
060509	14:58	706	PR09 album	17	11811	school
060509	14:58	706	JAPR09	18	2320	2
060509	14:58	706	JAseePR21	19	500	0
060509	14:58	706	PR21 innocence	20	5042	innocence
060509	14:58	706	JAPR21	21	1878	2
060509	14:58	706	JAseePR01	22	500	0
060509	14:58	706	PR01 cash	23	7122	walnut
060509	14:58	706	JAPR01	24	2341	1
060509	14:58	706	JAseePR11	25	500	0
060509	14:58	706	PR11 ounce	26	4308	continue
060509	14:58	706	JAPR11	27	2177	1
060509	14:58	706	JAseePR25	28	500	0
060509	14:58	706	PR25 saliva	29	5384	saliva
060509	14:58	706	JAPR25	30	1830	1
060509	14:58	706	JAseePR30	31	500	0
060509	14:58	706	PR30 maiden	32	18476	america
060509	14:58	706	JAPR30	33	1671	1
060509	14:58	706	JAseePR03	34	500	0
060509	14:58	706	PR03 acre	35	3060	race
060509	14:58	706	JAPR03	36	1199	1
060509	14:58	706	JAseePR13	37	500	0
060509	14:58	706	PR13 ambition	38	4345	cocaine
060509	14:58	706	JAPR13	39	3324	1
060509	14:58	706	JAseePR04	40	500	0
060509	14:58	706	PR04 diaper	41	9154	jewelry
060509	14:58	706	JAPR04	42	843	1
060509	14:58	706	JAseeUR53	1	500	0
060509	14:58	706	UR53 hell	2	3209	hello
060509	14:58	706	JAUR53	3	19678	5
060509	14:58	706	JAseeUR13	4	500	0
060509	14:58	706	UR13 almanac	5	3881	animal
060509	14:58	706	JAUR13	6	6472	5
060509	14:58	706	JAseeHL07	7	500	0
060509	14:58	706	HL07 king	8	2524	king
060509	14:58	706	JAHL07	9	4351	4
060509	14:58	706	JAseeLH05	10	500	0
060509	14:58	706	LH05 chain	11	23334	repair
060509	14:58	706	JALH05	12	1509	4
060509	14:58	706	JAseeLH02	13	500	0
060509	14:58	706	LH02 harm	14	3409	harm
060509	14:58	706	JALH02	15	2214	4
060509	14:58	706	JAseeUR64	16	500	0
060509	14:58	706	UR64 fist	17	9387	dime
060509	14:58	706	JAUR64	18	3386	5
060509	14:58	706	JAseeUR32	19	500	0
060509	14:58	706	UR32 navigator	20	4820	in
060509	14:58	706	JAUR32	21	4427	5
060509	14:58	706	JAseeLH50	22	500	0
060509	14:58	706	LH50 measure	23	12664	middle
060509	14:58	706	JALH50	24	4311	4
060509	14:58	706	JAseeLH27	25	500	0
060509	14:58	706	LH27 condition	26	13393	culprit
060509	14:58	706	JALH27	27	1074	5
060509	14:58	706	JAseeHL17	28	500	0
060509	14:58	706	HL17 soap	29	2089	soap
060509	14:58	706	JAHL17	30	1447	4
060509	14:58	706	JAseeUR74	31	500	0
060509	14:58	706	UR74 suitcase	32	13542	day
060509	14:58	706	JAUR74	33	1672	4
060509	14:58	706	JAseeHL36	34	500	0
060509	14:58	706	HL36 football	35	2493	football
060509	14:58	706	JAHL36	36	1465	4
060509	14:58	706	JAseeLH20	37	500	0
060509	14:58	706	LH20 violation	38	9295	violence
060509	14:58	706	JALH20	39	3058	5
060509	14:58	706	JAseeLH54	40	500	0
060509	14:58	706	LH54 limit	41	16883	length
060509	14:58	706	JALH54	42	2307	4
060509	14:58	706	JAseeLH51	43	500	0
060509	14:58	706	LH51 exit	44	12820	voltage
060509	14:58	706	JALH51	45	1573	4
060509	14:58	706	JAseeUR35	46	500	0
060509	14:58	706	UR35 cause	47	5814	habitat
060509	14:58	706	JAUR35	48	674	4
060509	14:58	706	JAseeLH19	49	500	0
060509	14:58	706	LH19 snob	50	11442	mucus
060509	14:58	706	JALH19	51	1072	4
060509	14:58	706	JAseeHL51	52	500	0
060509	14:58	706	HL51 color	53	3991	color
060509	14:58	706	JAHL51	54	1113	4
060509	14:58	706	JAseeHL47	55	500	0
060509	14:58	706	HL47 horse	56	3831	rode
060509	14:58	706	JAHL47	57	777	4
060509	14:58	706	JAseeUR45	58	500	0
060509	14:58	706	UR45 bridge	59	5253	wedding
060509	14:58	706	JAUR45	60	1464	4
060509	14:58	706	JAseeUR69	61	500	0
060509	14:58	706	UR69 flashlight	62	12230	flash
060509	14:58	706	JAUR69	63	2313	4
060509	14:58	706	JAseeUR76	64	500	0
060509	14:58	706	UR76 dignity	65	5850	math
060509	14:58	706	JAUR76	66	1332	4
060509	14:58	706	JAseeLH24	67	500	0
060509	14:58	706	LH24 feeling	68	3424	feeling
060509	14:58	706	JALH24	69	548	4
060509	14:58	706	JAseeHL53	70	500	0
060509	14:58	706	HL53 fish	71	1875	fish
060509	14:58	706	JAHL53	72	1265	4
060509	14:58	706	JAseeUR55	73	500	0
060509	14:58	706	UR55 bargain	74	8664	baptism
060509	14:58	706	JAUR55	75	1231	4
060509	14:58	706	JAseeUR50	76	500	0
060509	14:58	706	UR50 crane	77	5247	strain
060509	14:58	706	JAUR50	78	1051	4
060509	14:58	706	JAseeHL43	79	500	0
060509	14:58	706	HL43 money	80	1787	money
060509	14:58	706	JAHL43	81	1271	4
060509	14:58	706	JAseeLH11	82	500	0
060509	14:58	706	LH11 cancer	83	4013	cancer
060509	14:58	706	JALH11	84	1887	4
060509	14:58	706	JAseeUR77	85	500	0
060509	14:58	706	UR77 uncle	86	3883	read
060509	14:58	706	JAUR77	87	1362	4
060509	14:58	706	JAseeUR27	88	500	0
060509	14:58	706	UR27 consequence	89	4653	consequence
060509	14:58	706	JAUR27	90	2675	4
060509	14:58	706	JAseeUR68	91	500	0
060509	14:58	706	UR68 fatigue	92	2956	water
060509	14:58	706	JAUR68	93	1068	4
060509	14:58	706	JAseeUR22	94	500	0
060509	14:58	706	UR22 thesaurus	95	2788	baseball
060509	14:58	706	JAUR22	96	1003	4
060509	14:58	706	JAseeUR07	97	500	0
060509	14:58	706	UR07 gathering	98	2181	healing
060509	14:58	706	JAUR07	99	1007	4
060509	14:58	706	JAseeUR95	100	500	0
060509	14:58	706	UR95 fool	101	8201	control
060509	14:58	706	JAUR95	102	1180	4
060509	14:58	706	JAseeUR63	103	500	0
060509	14:58	706	UR63 alley	104	4967	spill
060509	14:58	706	JAUR63	105	1415	4
060509	14:58	706	JAseeUR06	106	500	0
060509	14:58	706	UR06 cello	107	6695	degrees
060509	14:58	706	JAUR06	108	1124	4
060509	14:58	706	JAseeHL34	109	500	0
060509	14:58	706	HL34 hunger	110	2145	hunger
060509	14:58	706	JAHL34	111	3180	4
060509	14:58	706	JAseeUR66	112	500	0
060509	14:58	706	UR66 chief	113	4943	freeze
060509	14:58	706	JAUR66	114	1120	4
060509	14:58	706	JAseeUR67	115	500	0
060509	14:58	706	UR67 producer	116	2293	produce
060509	14:58	706	JAUR67	117	1746	4
060509	14:58	706	JAseeUR36	118	500	0
060509	14:58	706	UR36 denim	119	11332	deny
060509	14:58	706	JAUR36	120	934	5
060509	14:58	706	JAseeUR34	121	500	0
060509	14:58	706	UR34 charity	122	2203	charity
060509	14:58	706	JAUR34	123	1100	4
060509	14:58	706	JAseeLH14	124	500	0
060509	14:58	706	LH14 note	125	3131	note
060509	14:58	706	JALH14	126	1219	5
060509	14:58	706	JAseeHL50	127	500	0
060509	14:58	706	HL50 doctor	128	2939	doctor
060509	14:58	706	JAHL50	129	1940	5
060509	14:58	706	JAseeLH03	130	500	0
060509	14:58	706	LH03 yard	131	2621	yard
060509	14:58	706	JALH03	132	1900	5
060509	14:58	706	JAseeLH22	133	500	0
060509	14:58	706	LH22 crowd	134	3359	crowd
060509	14:58	706	JALH22	135	2478	5
060509	14:58	706	JAseeUR46	136	500	0
060509	14:58	706	UR46 content	137	2296	content
060509	14:58	706	JAUR46	138	1780	5
060509	14:58	706	JAseeUR75	139	500	0
060509	14:58	706	UR75 awe	140	4501	shave
060509	14:58	706	JAUR75	141	993	4
060509	14:58	706	JAseeUR78	142	500	0
060509	14:58	706	UR78 blender	143	5500	bleed
060509	14:58	706	JAUR78	144	837	5
060509	14:58	706	JAseeHL39	145	500	0
060509	14:58	706	HL39 book	146	1998	book
060509	14:58	706	JAHL39	147	2208	5
060509	14:58	706	JAseeUR62	148	500	0
060509	14:58	706	UR62 chemistry	149	3197	chemistry
060509	14:58	706	JAUR62	150	1506	5
060509	14:58	706	JAseeLH04	151	500	0
060509	14:58	706	LH04 grade	152	4007	target
060509	14:58	706	JALH04	153	1097	4
060509	14:58	706	JAseeHL03	154	500	0
060509	14:58	706	HL03 cigarette	155	4823	cigarette
060509	14:58	706	JAHL03	156	1325	5
060509	14:58	706	JAseeUR20	157	500	0
060509	14:58	706	UR20 climax	158	3378	control
060509	14:58	706	JAUR20	159	615	4
060509	14:58	706	JAseeLH23	160	500	0
060509	14:58	706	LH23 possibility	161	10938	possibility
060509	14:58	706	JALH23	162	2030	5
060509	14:58	706	JAseeHL09	163	500	0
060509	14:58	706	HL09 chalk	164	1988	chalk
060509	14:58	706	JAHL09	165	1830	6
060509	14:58	706	JAseeLH01	166	500	0
060509	14:58	706	LH01 brain	167	1924	brain
060509	14:58	706	JALH01	168	1209	5
060509	14:58	706	JAseeHL42	169	500	0
060509	14:58	706	HL42 pie	170	1522	pie
060509	14:58	706	JAHL42	171	1057	5
060509	14:58	706	JAseeLH43	172	500	0
060509	14:58	706	LH43 noise	173	2857	movie
060509	14:58	706	JALH43	174	541	5
060509	14:58	706	JAseeLH30	175	500	0
060509	14:58	706	LH30 assignment	176	2699	assignment
060509	14:58	706	JALH30	177	830	5
060509	14:58	706	JAseeLH53	178	500	0
060509	14:58	706	LH53 core	179	3793	score
060509	14:58	706	JALH53	180	1300	5
060509	14:58	706	JAseeUR47	181	500	0
060509	14:58	706	UR47 chimpanzee	182	4530	chip
060509	14:58	706	JAUR47	183	1429	5
060509	14:58	706	JAseeUR42	184	500	0
060509	14:58	706	UR42 sergeant	185	2741	maid
060509	14:58	706	JAUR42	186	655	5
060509	14:58	706	JAseeUR01	187	500	0
060509	14:58	706	UR01 file	188	7448	groom
060509	14:58	706	JAUR01	189	1132	5
060509	14:58	706	JAseeUR87	190	500	0
060509	14:58	706	UR87 duty	191	2161	duty
060509	14:58	706	JAUR87	192	499	4
060509	14:58	706	JAseeHL24	193	500	0
060509	14:58	706	HL24 eye	194	1748	eye
060509	14:58	706	JAHL24	195	633	5
060509	14:58	706	JAseeUR58	196	500	0
060509	14:58	706	UR58 answer	197	2475	answer
060509	14:58	706	JAUR58	198	648	4
060509	14:58	706	JAseeHL41	199	500	0
060509	14:58	706	HL41 hand	200	1570	hand
060509	14:58	706	JAHL41	201	647	5
060509	14:58	706	JAseeUR54	202	500	0
060509	14:58	706	UR54 steam	203	3377	stem
060509	14:58	706	JAUR54	204	791	5
060509	14:58	706	JAseeUR82	205	500	0
060509	14:58	706	UR82 campus	206	3490	president
060509	14:58	706	JAUR82	207	595	5
060509	14:58	706	JAseeHL49	208	500	0
060509	14:58	706	HL49 spice	209	9639	noodle
060509	14:58	706	JAHL49	210	3659	5
060509	14:58	706	JAseeUR103	211	500	0
060509	14:58	706	UR103 hula	212	2106	laugh
060509	14:58	706	JAUR103	213	655	5
060509	14:58	706	JAseeUR70	214	500	0
060509	14:58	706	UR70 pajamas	215	3585	pizza
060509	14:58	706	JAUR70	216	1637	4
060509	14:58	706	JAseeHL23	217	500	0
060509	14:58	706	HL23 baby	218	2084	baby
060509	14:58	706	JAHL23	219	2338	5
060509	14:58	706	JAseeLH09	220	500	0
060509	14:58	706	LH09 piece	221	4410	pants
060509	14:58	706	JALH09	222	963	5
060509	14:58	706	JAseeHL05	223	500	0
060509	14:58	706	HL05 mountain	224	3063	mountain
060509	14:58	706	JAHL05	225	1018	4
060509	14:58	706	JAseeHL25	226	500	0
060509	14:58	706	HL25 cut	227	2179	cut
060509	14:58	706	JAHL25	228	717	4
060509	14:58	706	JAseeHL32	229	500	0
060509	14:58	706	HL32 television	230	4771	television
060509	14:58	706	JAHL32	231	2100	6
060509	14:58	706	JAseeLH38	232	500	0
060509	14:58	706	LH38 paint	233	4022	paint
060509	14:58	706	JALH38	234	1016	4
060509	14:58	706	JAseeUR52	235	500	0
060509	14:58	706	UR52 knight	236	2954	tie
060509	14:58	706	JAUR52	237	1586	5
060509	14:58	706	JAseePR28	238	500	0
060509	14:58	706	PR28 challenge	239	2995	challenge
060509	14:58	706	JAPR28	240	713	5
060509	14:58	706	JAseeLH25	241	500	0
060509	14:58	706	LH25 track	242	2672	track
060509	14:58	706	JALH25	243	2205	5
060509	14:58	706	JAseeUR24	244	500	0
060509	14:58	706	UR24 kid	245	3083	sibling
060509	14:58	706	JAUR24	246	1037	4
060509	14:58	706	JAseeUR17	247	500	0
060509	14:58	706	UR17 trance	248	9086	pirate
060509	14:58	706	JAUR17	249	906	5
060509	14:58	706	JAseeHL10	250	500	0
060509	14:58	706	HL10 cow	251	2712	cowl
060509	14:58	706	JAHL10	252	963	4
060509	14:58	706	JAseeUR30	253	500	0
060509	14:58	706	UR30 lover	254	2551	cancer
060509	14:58	706	JAUR30	255	1089	4
060509	14:58	706	JAseeUR14	256	500	0
060509	14:58	706	UR14 fudge	257	3007	fugitive
060509	14:58	706	JAUR14	258	853	5
060509	14:58	706	JAseeUR60	259	500	0
060509	14:58	706	UR60 plaque	260	3782	plaque
060509	14:58	706	JAUR60	261	753	5
060509	14:58	706	JAseeHL21	262	500	0
060509	14:58	706	HL21 empire	263	2462	emperor
060509	14:58	706	JAHL21	264	836	5
060509	14:58	706	JAseeHL45	265	500	0
060509	14:58	706	HL45 words	266	2165	words
060509	14:58	706	JAHL45	267	519	5
060509	14:58	706	JAseeUR107	268	500	0
060509	14:58	706	UR107 cocaine	269	6335	web
060509	14:58	706	JAUR107	270	2027	5
060509	14:58	706	JAseeLH46	271	500	0
060509	14:58	706	LH46 submarine	272	4689	solitaire
060509	14:58	706	JALH46	273	1885	4
060509	14:58	706	JAseeUR85	274	500	0
060509	14:58	706	UR85 stroke	275	2297	stroke
060509	14:58	706	JAUR85	276	782	4
060509	14:58	706	JAseeUR28	277	500	0
060509	14:58	706	UR28 bang	278	3322	rob
060509	14:58	706	JAUR28	279	922	4
060509	14:58	706	JAseeUR98	280	500	0
060509	14:58	706	UR98 latch	281	2512	volcano
060509	14:58	706	JAUR98	282	779	5
060509	14:58	706	JAseeUR105	283	500	0
060509	14:58	706	UR105 curtain	284	8967	calligraphy
060509	14:58	706	JAUR105	285	896	5
060509	14:58	706	JAseeUR65	286	500	0
060509	14:58	706	UR65 checkers	287	4471	chess
060509	14:58	706	JAUR65	288	565	5
060509	14:58	706	JAseeUR106	289	500	0
060509	14:58	706	UR106 eagle	290	2123	eagle
060509	14:58	706	JAUR106	291	727	5
060509	14:58	706	JAseeLH17	292	500	0
060509	14:58	706	LH17 life	293	2126	life
060509	14:58	706	JALH17	294	842	4
060509	14:58	706	JAseeUR04	295	500	0
060509	14:58	706	UR04 marsh	296	2331	march
060509	14:58	706	JAUR04	297	598	5
060509	14:58	706	JAseeHL31	298	500	0
060509	14:58	706	HL31 war	299	2587	war
060509	14:58	706	JAHL31	300	731	5
060509	14:58	706	JAseeLH07	301	500	0
060509	14:58	706	LH07 rear	302	5129	death
060509	14:58	706	JALH07	303	2594	5
060509	14:58	706	JAseeHL33	304	500	0
060509	14:58	706	HL33 joke	305	2087	joke
060509	14:58	706	JAHL33	306	1253	5
060509	14:58	706	JAseeHL01	307	500	0
060509	14:58	706	HL01 elephant	308	2668	elephant
060509	14:58	706	JAHL01	309	977	5
060509	14:58	706	JAseeLH37	310	500	0
060509	14:58	706	LH37 pad	311	1516	pad
060509	14:58	706	JALH37	312	2419	5
060509	14:58	706	JAseeHL14	313	500	0
060509	14:58	706	HL14 milk	314	1976	milk
060509	14:58	706	JAHL14	315	835	5
060509	14:58	706	JAseeUR96	316	500	0
060509	14:58	706	UR96 dessert	317	2460	desert
060509	14:58	706	JAUR96	318	1313	5
060509	14:58	706	JAseeLH32	319	500	0
060509	14:58	706	LH32 capacity	320	5070	capable
060509	14:58	706	JALH32	321	1041	5
060509	14:58	706	JAseeUR59	322	500	0
060509	14:58	706	UR59 copper	323	5794	paper
060509	14:58	706	JAUR59	324	718	5
060509	14:58	706	JAseeUR21	325	500	0
060509	14:58	706	UR21 ore	326	3364	chore
060509	14:58	706	JAUR21	327	1762	5
060509	14:58	706	JSseePR26	1	500	0
060509	14:58	706	PR26 colonel	2	9893	spray
060509	14:58	706	JSPR26	3	8174	1
060509	14:58	706	JSseePR24	4	500	0
060509	14:58	706	PR24 pest	5	8112	prophet
060509	14:58	706	JSPR24	6	9951	8
060509	14:58	706	JSseePR08	7	500	0
060509	14:58	706	PR08 beef	8	5787	sting
060509	14:58	706	JSPR08	9	7359	2
060509	14:58	706	JSseePR05	10	500	0
060509	14:58	706	PR05 calf	11	3675	shelf
