date	time	subject	trialcode	trialnum	latency	response	
090607	12:11	812	JSPR17	1	19893	4	
090607	12:11	812	PR17 emerald	2	24398	control	
090607	12:11	812	JSPR27	3	6826	8	
090607	12:11	812	PR27 wheat	4	27162	saw	
090607	12:11	812	JSPR07	5	7816	7	
090607	12:11	812	PR07 bog	6	9172	music	
090607	12:11	812	JSPR23	7	6619	8	
090607	12:11	812	PR23 companion	8	19698	country	
090607	12:11	812	JSPR06	9	14907	1	
090607	12:11	812	PR06 beast	10	14519	monster	
090607	12:11	812	JSPR09	11	7249	9	
090607	12:11	812	PR09 album	12	4193	arm	
090607	12:11	812	JSPR21	13	18817	5	
090607	12:11	812	PR21 innocence	14	25980	truth	
090607	12:11	812	JSPR01	15	12633	6	
090607	12:11	812	PR01 cash	16	11076	nuts	
090607	12:11	812	JSPR11	17	17243	4	
090607	12:11	812	PR11 ounce	18	8390	land	
090607	12:11	812	JSPR25	19	10855	9	
090607	12:11	812	PR25 saliva	20	10441	bread	
090607	12:11	812	JSPR30	21	10570	8	
090607	12:11	812	PR30 maiden	22	13331	maiden	
090607	12:11	812	JSPR03	23	3452	9	
090607	12:11	812	PR03 acre	24	7208	tree	
090607	12:11	812	JSPR13	25	17737	5	
090607	12:11	812	PR13 ambition	26	13480	track	
090607	12:11	812	JSPR04	27	9128	7	
090607	12:11	812	PR04 diaper	28	5131	diaper	
090607	12:11	812	JSPR28	29	6876	7	
090607	12:11	812	PR28 challenge	30	13516	dungeon	
090607	12:11	812	JSUR42	1	10929	9	
090607	12:11	812	UR42 sergeant	2	6799	house	
090607	12:11	812	JSUR52	3	20006	4	
090607	12:11	812	UR52 knight	4	17503	anchor	
090607	12:11	812	JSLH01	5	11689	8	
090607	12:11	812	LH01 brain	6	17522	inventor	
090607	12:11	812	JSHL45	7	20106	9	
090607	12:11	812	HL45 words	8	5674	spelling	
090607	12:11	812	JSLH03	9	15586	3	
090607	12:11	812	LH03 yard	10	8451	racket	
090607	12:11	812	JSHL21	11	10031	7	
090607	12:11	812	HL21 empire	12	3622	ancient	
090607	12:11	812	JSLH38	13	7081	7	
090607	12:11	812	LH38 paint	14	3867	cold	
090607	12:11	812	JSLH43	15	22710	6	
090607	12:11	812	LH43 noise	16	8241	flowers	
090607	12:11	812	JSLH37	17	34282	3	
090607	12:11	812	LH37 pad	18	3289	pain	
090607	12:11	812	JSHL07	19	9612	9	
090607	12:11	812	HL07 king	20	5846	king	
090607	12:11	812	JSHL39	21	16238	5	
090607	12:11	812	HL39 book	22	13764	study	
090607	12:11	812	JSLH24	23	16621	8	
090607	12:11	812	LH24 feeling	24	7273	relgion	
090607	12:11	812	JSHL42	25	7789	9	
090607	12:11	812	HL42 pie	26	14085	pie	
090607	12:11	812	JSUR30	27	8513	6	
090607	12:11	812	UR30 lover	28	5296	cancer	
090607	12:11	812	JSUR95	29	8296	8	
090607	12:11	812	UR95 fool	30	21517	good	
090607	12:11	812	JSLH20	31	9048	9	
090607	12:11	812	LH20 violation	32	11016	injury 	
090607	12:11	812	JSUR96	33	15128	7	
090607	12:11	812	UR96 dessert	34	12150	future	
090607	12:11	812	JSUR66	35	18215	2	
090607	12:11	812	UR66 chief	36	15644	festival	
090607	12:11	812	JSHL17	37	12038	7	
090607	12:11	812	HL17 soap	38	8027	soap	
090607	12:11	812	JSUR06	39	12953	8	
090607	12:11	812	UR06 cello	40	7091	measure	
090607	12:11	812	JSLH32	41	9422	8	
090607	12:11	812	LH32 capacity	42	20236	unique	
090607	12:11	812	JSUR103	43	16536	9	
090607	12:11	812	UR103 hula	44	10201	laugh	
090607	12:11	812	JSHL23	45	4609	9	
090607	12:11	812	HL23 baby	46	5554	baby	
090607	12:11	812	JSUR63	47	15109	6	
090607	12:11	812	UR63 alley	48	11275	outside	
090607	12:11	812	JSLH11	49	14442	5	
090607	12:11	812	LH11 cancer	50	42995	small	
090607	12:11	812	JSHL03	51	23358	6	
090607	12:11	812	HL03 cigarette	52	12240	cigars	
090607	12:11	812	JSUR28	53	9867	8	
090607	12:11	812	UR28 bang	54	3742	bang	
090607	12:11	812	JSLH04	55	10083	6	
090607	12:11	812	LH04 grade	56	8321	circle	
090607	12:11	812	JSHL01	57	6948	9	
090607	12:11	812	HL01 elephant	58	5995	elephant	
090607	12:11	812	JSLH27	59	15839	6	
090607	12:11	812	LH27 condition	60	6632	court	
090607	12:11	812	JSLH51	61	7708	7	
090607	12:11	812	LH51 exit	62	5612	plug	
090607	12:11	812	JSLH07	63	11657	7	
090607	12:11	812	LH07 rear	64	3795	top	
090607	12:11	812	JSHL41	65	10836	2	
090607	12:11	812	HL41 hand	66	4787	game	
090607	12:11	812	JSUR50	67	11878	7	
090607	12:11	812	UR50 crane	68	9759	run	
090607	12:11	812	JSUR76	69	7483	8	
090607	12:11	812	UR76 dignity	70	9009	sign	
090607	12:11	812	JSUR69	71	15044	4	
090607	12:11	812	UR69 flashlight	72	22601	full	
090607	12:11	812	JSUR85	73	11245	5	
090607	12:11	812	UR85 stroke	74	11947	pirate	
090607	12:11	812	JSHL47	75	6838	8	
090607	12:11	812	HL47 horse	76	4355	horse	
090607	12:11	812	JSHL49	77	14242	5	
090607	12:11	812	HL49 spice	78	3467	spice	
090607	12:11	812	JSUR22	79	9649	5	
090607	12:11	812	UR22 thesaurus	80	5550	baseball	
090607	12:11	812	JSLH25	81	7104	6	
090607	12:11	812	LH25 track	82	3016	track	
090607	12:11	812	JSUR82	83	4427	7	
090607	12:11	812	UR82 campus	84	6137	president	
090607	12:11	812	JSLH02	85	7875	7	
090607	12:11	812	LH02 harm	86	4980	hummer	
090607	12:11	812	JSLH14	87	24901	2	
090607	12:11	812	LH14 note	88	2733	note	
090607	12:11	812	JSUR70	89	4686	6	
090607	12:11	812	UR70 pajamas	90	14402	banana	
090607	12:11	812	JSHL31	91	6936	7	
090607	12:11	812	HL31 war	92	8266	law	
090607	12:11	812	JSLH50	93	5552	6	
090607	12:11	812	LH50 measure	94	19244	middle	
090607	12:11	812	JSUR60	95	12199	8	
090607	12:11	812	UR60 plaque	96	5038	plank	
090607	12:11	812	JSUR68	97	18270	4	
090607	12:11	812	UR68 fatigue	98	11681	sink	
090607	12:11	812	JSUR20	99	3655	6	
090607	12:11	812	UR20 climax	100	4678	control	
090607	12:11	812	JSHL09	101	12426	5	
090607	12:11	812	HL09 chalk	102	3610	chalk	
090607	12:11	812	JSLH09	103	12009	3	
090607	12:11	812	LH09 piece	104	4806	piece	
090607	12:11	812	JSUR27	105	21437	6	
090607	12:11	812	UR27 consequence	106	3979	heart	
090607	12:11	812	JSLH30	107	13829	9	
090607	12:11	812	LH30 assignment	108	11118	team	
090607	12:11	812	JSUR67	109	7551	5	
090607	12:11	812	UR67 producer	110	6445	partners	
090607	12:11	812	JSUR13	111	16919	6	
090607	12:11	812	UR13 almanac	112	14615	croc	
090607	12:11	812	JSUR107	113	8124	7	
090607	12:11	812	UR107 cocaine	114	6333	spider	
090607	12:11	812	JSUR65	115	8205	7	
090607	12:11	812	UR65 checkers	116	9159	cheese	
090607	12:11	812	JSUR59	117	15402	8	
090607	12:11	812	UR59 copper	118	4067	paper	
090607	12:11	812	JSHL53	119	21159	6	
090607	12:11	812	HL53 fish	120	2862	fish	
090607	12:11	812	JSUR47	121	7763	6	
090607	12:11	812	UR47 chimpanzee	122	8728	tall	
090607	12:11	812	JSUR58	123	6702	6	
090607	12:11	812	UR58 answer	124	4973	broken	
090607	12:11	812	JSLH53	125	10881	6	
090607	12:11	812	LH53 core	126	5797	cries	
090607	12:11	812	JSUR105	127	13146	5	
090607	12:11	812	UR105 curtain	128	6570	writing	
090607	12:11	812	JSHL05	129	12541	6	
090607	12:11	812	HL05 mountain	130	4359	mountain	
090607	12:11	812	JSUR64	131	10492	5	
090607	12:11	812	UR64 fist	132	6027	money	
090607	12:11	812	JSUR32	133	23713	4	
090607	12:11	812	UR32 navigator	134	6559	place	
090607	12:11	812	JSUR04	135	5949	7	
090607	12:11	812	UR04 marsh	136	6015	mash	
090607	12:11	812	JSHL34	137	9933	8	
090607	12:11	812	HL34 hunger	138	4242	hunger	
090607	12:11	812	JSUR106	139	10001	5	
090607	12:11	812	UR106 eagle	140	20321	inside	
090607	12:11	812	JSUR77	141	7205	6	
090607	12:11	812	UR77 uncle	142	13637	track	
090607	12:11	812	JSUR35	143	8218	6	
090607	12:11	812	UR35 cause	144	7434	oil	
090607	12:11	812	JSHL43	145	9347	5	
090607	12:11	812	HL43 money	146	3633	money	
090607	12:11	812	JSLH23	147	4776	7	
090607	12:11	812	LH23 possibility	148	6451	possibility	
090607	12:11	812	JSUR36	149	11190	7	
090607	12:11	812	UR36 denim	150	3451	hate	
090607	12:11	812	JSHL24	151	17072	1	
090607	12:11	812	HL24 eye	152	5206	pin	
090607	12:11	812	JSLH22	153	9255	6	
090607	12:11	812	LH22 crowd	154	8521	fruit	
090607	12:11	812	JSLH05	155	8931	7	
090607	12:11	812	LH05 chain	156	3709	chain	
090607	12:11	812	JSUR45	157	3702	8	
090607	12:11	812	UR45 bridge	158	15579	mariage	
090607	12:11	812	JSHL33	159	2947	6	
090607	12:11	812	HL33 joke	160	2684	joke	
090607	12:11	812	JSUR14	161	6050	7	
090607	12:11	812	UR14 fudge	162	14724	parole	
090607	12:11	812	JSUR46	163	5161	8	
090607	12:11	812	UR46 content	164	11392	liquid	
090607	12:11	812	JSUR78	165	2662	7	
090607	12:11	812	UR78 blender	166	5323	surrender	
090607	12:11	812	JSUR62	167	10304	6	
090607	12:11	812	UR62 chemistry	168	17918	chemistry	
090607	12:11	812	JSUR75	169	3738	1	
090607	12:11	812	UR75 awe	170	12706	ax	
090607	12:11	812	JSLH46	171	13676	1	
090607	12:11	812	LH46 submarine	172	8134	submarine	
090607	12:11	812	JSLH17	173	6618	5	
090607	12:11	812	LH17 life	174	5731	old	
090607	12:11	812	JSUR21	175	2532	6	
090607	12:11	812	UR21 ore	176	21327	lights	
090607	12:11	812	JSUR17	177	7804	6	
090607	12:11	812	UR17 trance	178	4237	trap	
090607	12:11	812	JSUR98	179	3849	2	
090607	12:11	812	UR98 latch	180	3288	land	
090607	12:11	812	JSHL36	181	7570	3	
090607	12:11	812	HL36 football	182	3873	football	
090607	12:11	812	JSHL32	183	3962	1	
090607	12:11	812	HL32 television	184	7213	television	
090607	12:11	812	JSLH19	185	7995	5	
090607	12:11	812	LH19 snob	186	8012	sinus	
090607	12:11	812	JSHL51	187	5528	5	
090607	12:11	812	HL51 color	188	2746	color	
090607	12:11	812	JSHL50	189	6873	6	
090607	12:11	812	HL50 doctor	190	3313	doctor	
090607	12:11	812	JSUR53	191	5610	6	
090607	12:11	812	UR53 hell	192	6477	end	
090607	12:11	812	JSUR87	193	7046	8	
090607	12:11	812	UR87 duty	194	3576	short	
090607	12:11	812	JSHL25	195	5014	5	
090607	12:11	812	HL25 cut	196	5418	cut	
090607	12:11	812	JSHL14	197	5745	5	
090607	12:11	812	HL14 milk	198	2853	milk	
090607	12:11	812	JSHL10	199	4585	4	
090607	12:11	812	HL10 cow	200	4754	yard	
090607	12:11	812	JSUR01	201	5558	4	
090607	12:11	812	UR01 file	202	3280	file	
090607	12:11	812	JSUR55	203	6781	6	
090607	12:11	812	UR55 bargain	204	7680	church	
090607	12:11	812	JSUR07	205	4374	8	
090607	12:11	812	UR07 gathering	206	7985	gathering	
090607	12:11	812	JSUR74	207	10095	7	
090607	12:11	812	UR74 suitcase	208	3009	morning	
090607	12:11	812	JSUR34	209	7979	8	
090607	12:11	812	UR34 charity	210	31525	graph	
090607	12:11	812	JSLH54	211	8831	6	
090607	12:11	812	LH54 limit	212	5861	yard	
090607	12:11	812	JSUR54	213	5699	3	
090607	12:11	812	UR54 steam	214	2901	radio	
090607	12:11	812	JSUR24	215	12507	9	
090607	12:11	812	UR24 kid	216	4781	sister	
090607	12:11	812	JAPR26	1	21463	4	
090607	12:11	812	PR26 colonel	2	8448	boy	
090607	12:11	812	JAPR24	3	42567	3	
090607	12:11	812	PR24 pest	4	13562	phase	
090607	12:11	812	JAPR08	5	54127	9	
090607	12:11	812	PR08 beef	6	5174	sting	
090607	12:11	812	JAPR05	7	7794	8	
090607	12:11	812	PR05 calf	8	4733	year	
090607	12:11	812	JAPR14	9	41947	8	
090607	12:11	812	PR14 religion	10	3879	single	
090607	12:11	812	JAPR19	11	5309	6	
090607	12:11	812	PR19 void	12	5935	mariage	
090607	12:11	812	JAPR12	13	6903	7	
090607	12:11	812	PR12 royalty	14	10600	poverty	
090607	12:11	812	JAPR02	15	8493	3	
090607	12:11	812	PR02 wrinkle	16	2988	wife	
090607	12:11	812	JAPR10	17	6798	7	
090607	12:11	812	PR10 camel	18	5185	camera	
090607	12:11	812	JAPR15	19	3944	6	
090607	12:11	812	PR15 depletion	20	7399	deception	
090607	12:11	812	JAPR20	21	9459	3	
090607	12:11	812	PR20 advertisement	22	4463	advice	
090607	12:11	812	JAPR29	23	6848	5	
090607	12:11	812	PR29 mermaid	24	3576	space	
090607	12:11	812	JAPR16	25	20429	6	
090607	12:11	812	PR16 compulsion	26	3641	confident	
090607	12:11	812	JAPR22	27	2549	8	
090607	12:11	812	PR22 ass	28	4012	road	
090607	12:11	812	JAUR43	1	5267	6	
090607	12:11	812	UR43 balloon	2	3015	ball	
090607	12:11	812	JAUR102	3	3061	8	
090607	12:11	812	UR102 velocity	4	4688	whiskey	
090607	12:11	812	JAHL08	5	4770	7	
090607	12:11	812	HL08 math	6	2085	math	
090607	12:11	812	JALH13	7	5187	7	
090607	12:11	812	LH13 crease	8	2261	sew	
090607	12:11	812	JALH08	9	7601	7	
090607	12:11	812	LH08 house	10	3027	home	
090607	12:11	812	JAUR71	11	5613	7	
090607	12:11	812	UR71 padding	12	5137	padding	
090607	12:11	812	JAUR25	13	8137	5	
090607	12:11	812	UR25 partner	14	7186	sauce	
090607	12:11	812	JALH47	15	4235	7	
090607	12:11	812	LH47 detergent	16	3375	detergent	
090607	12:11	812	JALH36	17	4605	7	
090607	12:11	812	LH36 gang	18	4150	sail	
090607	12:11	812	JAHL15	19	4893	5	
090607	12:11	812	HL15 bomb	20	8207	atom	
090607	12:11	812	JAUR84	21	3680	5	
090607	12:11	812	UR84 flag	22	3909	flame	
090607	12:11	812	JAHL29	23	4318	8	
090607	12:11	812	HL29 ring	24	2165	ring	
090607	12:11	812	JALH29	25	7038	4	
090607	12:11	812	LH29 closet	26	9956	cabinet	
090607	12:11	812	JALH52	27	2854	7	
090607	12:11	812	LH52 bureau	28	4079	busy	
090607	12:11	812	JALH48	29	2939	7	
090607	12:11	812	LH48 outcome	30	3594	outcome	
090607	12:11	812	JAUR29	31	7443	1	
090607	12:11	812	UR29 patrol	32	5736	place	
090607	12:11	812	JALH28	33	6178	5	
090607	12:11	812	LH28 vagrant	34	5437	vacant	
090607	12:11	812	JAHL52	35	2604	6	
090607	12:11	812	HL52 sand	36	8017	side	
090607	12:11	812	JAHL44	37	3325	7	
090607	12:11	812	HL44 baseball	38	2801	baseball	
090607	12:11	812	JAUR37	39	4336	4	
090607	12:11	812	UR37 cloth	40	4641	storm	
090607	12:11	812	JAUR81	41	2294	7	
090607	12:11	812	UR81 acid	42	6870	acid	
090607	12:11	812	JAUR88	43	6693	5	
090607	12:11	812	UR88 circus	44	3131	circus	
090607	12:11	812	JALH34	45	3271	7	
090607	12:11	812	LH34 panel	46	7030	murder	
090607	12:11	812	JAHL54	47	4614	5	
090607	12:11	812	HL54 indian	48	9717	indian	
090607	12:11	812	JAUR48	49	4224	6	
090607	12:11	812	UR48 democracy	50	5545	democracy	
090607	12:11	812	JAUR40	51	3360	6	
090607	12:11	812	UR40 dancer	52	3550	cut	
090607	12:11	812	JAHL38	53	2897	7	
090607	12:11	812	HL38 boat	54	3064	boat	
090607	12:11	812	JALH18	55	2304	7	
090607	12:11	812	LH18 edge	56	3918	finish	
090607	12:11	812	JAUR89	57	2018	8	
090607	12:11	812	UR89 crow	58	7007	field	
090607	12:11	812	JAUR18	59	8838	7	
090607	12:11	812	UR18 relief	60	3552	family	
090607	12:11	812	JAUR80	61	4123	7	
090607	12:11	812	UR80 antique	62	3057	bite	
090607	12:11	812	JAUR15	63	2477	8	
090607	12:11	812	UR15 compass	64	10669	love	
090607	12:11	812	JAUR08	65	3438	8	
090607	12:11	812	UR08 assistant	66	16082	chair	
090607	12:11	812	JAUR94	67	3970	3	
090607	12:11	812	UR94 bristle	68	5048	bank	
090607	12:11	812	JAUR61	69	3684	1	
090607	12:11	812	UR61 suicide	70	4214	sky	
090607	12:11	812	JAUR05	71	3645	6	
090607	12:11	812	UR05 lease	72	2455	lease	
090607	12:11	812	JAHL28	73	3320	1	
090607	12:11	812	HL28 bird	74	3202	bird	
090607	12:11	812	JAUR73	75	3222	6	
090607	12:11	812	UR73 kite	76	8936	tissue	
090607	12:11	812	JAUR79	77	3972	1	
090607	12:11	812	UR79 beetle	78	3446	beetle	
090607	12:11	812	JAUR31	79	3886	3	
090607	12:11	812	UR31 diameter	80	5966	channel	
090607	12:11	812	JAUR26	81	4508	7	
090607	12:11	812	UR26 eternity	82	4768	integrity	
090607	12:11	812	JALH21	83	3532	7	
090607	12:11	812	LH21 monument	84	2961	memory	
090607	12:11	812	JAHL48	85	3002	7	
090607	12:11	812	HL48 airplane	86	3390	airplane	
090607	12:11	812	JALH10	87	2763	9	
090607	12:11	812	LH10 care	88	5645	hazard	
090607	12:11	812	JALH31	89	3571	7	
090607	12:11	812	LH31 self	90	1973	self	
090607	12:11	812	JAUR38	91	2233	6	
090607	12:11	812	UR38 energy	92	3744	energy	
090607	12:11	812	JAUR86	93	3875	6	
090607	12:11	812	UR86 boulevard	94	4606	build	
090607	12:11	812	JAUR90	95	3587	3	
090607	12:11	812	UR90 sailing	96	3781	sales	
090607	12:11	812	JAHL30	97	2022	8	
090607	12:11	812	HL30 air	98	7270	mad	
090607	12:11	812	JAUR57	99	2859	8	
090607	12:11	812	UR57 benefit	100	5885	muffin	
090607	12:11	812	JALH12	101	4241	8	
090607	12:11	812	LH12 addition	102	4390	addition	
090607	12:11	812	JAHL04	103	1945	8	
090607	12:11	812	HL04 beer	104	2806	beer	
090607	12:11	812	JAUR11	105	2520	7	
090607	12:11	812	UR11 foundation	106	8261	fantasy	
090607	12:11	812	JALH33	107	5142	7	
090607	12:11	812	LH33 fable	108	5446	false	
090607	12:11	812	JAHL11	109	2147	7	
090607	12:11	812	HL11 rock	110	2589	rock	
090607	12:11	812	JALH06	111	2723	7	
090607	12:11	812	LH06 element	112	4232	element	
090607	12:11	812	JAHL37	113	2031	7	
090607	12:11	812	HL37 thread	114	4719	plaid	
090607	12:11	812	JALH44	115	4430	7	
090607	12:11	812	LH44 vessel	116	4327	vessel	
090607	12:11	812	JALH39	117	4285	8	
090607	12:11	812	LH39 reward	118	4156	hunter	
090607	12:11	812	JALH49	119	3670	7	
090607	12:11	812	LH49 kindness	120	3278	kindness	
090607	12:11	812	JAUR39	121	2467	8	
090607	12:11	812	UR39 faith	122	6272	faith	
090607	12:11	812	JAUR33	123	2029	8	
090607	12:11	812	UR33 horror	124	3647	horror	
090607	12:11	812	JAUR02	125	2720	6	
090607	12:11	812	UR02 comma	126	7362	comet	
090607	12:11	812	JAUR93	127	2966	6	
090607	12:11	812	UR93 catcher	128	8297	old	
090607	12:11	812	JAHL19	129	2615	7	
090607	12:11	812	HL19 car	130	4656	tavel	
090607	12:11	812	JAUR49	131	2626	6	
090607	12:11	812	UR49 casket	132	6702	grocery	
090607	12:11	812	JAHL35	133	2176	7	
090607	12:11	812	HL35 cake	134	1797	cake	
090607	12:11	812	JAUR44	135	2954	6	
090607	12:11	812	UR44 rot	136	3662	rock	
090607	12:11	812	JAUR91	137	3022	6	
090607	12:11	812	UR91 anteater	138	4604	antbed	
090607	12:11	812	JAHL46	139	4827	4	
090607	12:11	812	HL46 butter	140	2260	butter	
090607	12:11	812	JAUR09	141	3067	7	
090607	12:11	812	UR09 education	142	3667	addition	
090607	12:11	812	JAUR83	143	3421	5	
090607	12:11	812	UR83 lesson	144	2840	lesson	
090607	12:11	812	JAHL18	145	2492	7	
090607	12:11	812	HL18 paper	146	2103	paper	
090607	12:11	812	JALH16	147	3478	6	
090607	12:11	812	LH16 power	148	6582	work	
090607	12:11	812	JAHL06	149	4352	1	
090607	12:11	812	HL06 egg	150	2654	egg	
090607	12:11	812	JAHL20	151	2388	6	
090607	12:11	812	HL20 wine	152	4004	wine	
090607	12:11	812	JAHL26	153	2067	6	
090607	12:11	812	HL26 light	154	2308	light	
090607	12:11	812	JALH42	155	3673	7	
090607	12:11	812	LH42 thought	156	7844	thought	
090607	12:11	812	JAUR41	157	1923	7	
090607	12:11	812	UR41 chime	158	6102	night	
090607	12:11	812	JAPR18	159	2145	8	
090607	12:11	812	PR18 clorox	160	5091	clock	
090607	12:11	812	JALH35	161	1992	7	
090607	12:11	812	LH35 shelter	162	6883	share	
090607	12:11	812	JAUR16	163	1713	6	
090607	12:11	812	UR16 century	164	2839	penny	
090607	12:11	812	JAUR108	165	3083	7	
090607	12:11	812	UR108 shield	166	3538	shoe	
090607	12:11	812	JAHL12	167	2208	8	
090607	12:11	812	HL12 space	168	2277	space	
090607	12:11	812	JAUR23	169	1875	8	
090607	12:11	812	UR23 abundance	170	5024	control	
090607	12:11	812	JAUR104	171	3958	1	
090607	12:11	812	UR104 aardvark	172	10269	aardvark	
090607	12:11	812	JAUR56	173	2152	7	
090607	12:11	812	UR56 antler	174	6370	nervous	
090607	12:11	812	JAHL16	175	1960	7	
090607	12:11	812	HL16 broom	176	17967	saw	
090607	12:11	812	JAHL40	177	1861	8	
090607	12:11	812	HL40 temperature	178	4240	kitchen	
090607	12:11	812	JAUR101	179	1721	8	
090607	12:11	812	UR101 beard	180	5353	bean	
090607	12:11	812	JALH45	181	40298	7	
090607	12:11	812	LH45 intellect	182	4062	number	
090607	12:11	812	JAUR92	183	2799	9	
090607	12:11	812	UR92 dart	184	3966	night	
090607	12:11	812	JAUR19	185	6506	8	
090607	12:11	812	UR19 bison	186	3193	pon	
090607	12:11	812	JAUR99	187	2764	8	
090607	12:11	812	UR99 branch	188	11671	cereal	
090607	12:11	812	JAUR10	189	8411	4	
090607	12:11	812	UR10 tribe	190	14725	turtle	
090607	12:11	812	JAUR72	191	3526	7	
090607	12:11	812	UR72 band	192	3421	bread	
090607	12:11	812	JAUR100	193	3069	8	
090607	12:11	812	UR100 comb	194	1739	lock	
090607	12:11	812	JALH26	195	4802	8	
090607	12:11	812	LH26 center	196	2087	enter	
090607	12:11	812	JAUR03	197	10832	5	
090607	12:11	812	UR03 vehicle	198	3585	vehicle	
090607	12:11	812	JAHL22	199	2561	8	
090607	12:11	812	HL22 problem	200	13375	order	
090607	12:11	812	JALH15	201	2687	8	
090607	12:11	812	LH15 blessing	202	3103	blessing	
090607	12:11	812	JAHL27	203	4303	3	
090607	12:11	812	HL27 rain	204	1820	rain	
090607	12:11	812	JAHL02	205	5845	4	
090607	12:11	812	HL02 flower	206	2187	flower	
090607	12:11	812	JALH41	207	6866	4	
090607	12:11	812	LH41 girl	208	2773	girl	
090607	12:11	812	JAHL13	209	3563	7	
090607	12:11	812	HL13 map	210	2254	map	
090607	12:11	812	JAUR97	211	2002	7	
090607	12:11	812	UR97 banner	212	6918	hammer	
090607	12:11	812	JALH40	213	8583	4	
090607	12:11	812	LH40 field	214	8604	filled	
090607	12:11	812	JAUR51	215	5358	4	
090607	12:11	812	UR51 cabbage	216	3143	cars	
090607	12:11	812	JAUR12	217	7798	4	
090607	12:11	812	UR12 unicorn	218	7698	silverware	
