date	time	subject	trialcode	trialnum	latency	response	
090607	13:40	817	JSPR17	1	18726	8	
090607	13:40	817	PR17 emerald	2	11355	tree	
090607	13:40	817	JSPR27	3	5445	6	
090607	13:40	817	PR27 wheat	4	8265	wheat	
090607	13:40	817	JSPR07	5	13079	6	
090607	13:40	817	PR07 bog	6	4583	bag	
090607	13:40	817	JSPR23	7	6336	8	
090607	13:40	817	PR23 companion	8	4705	control	
090607	13:40	817	JSPR06	9	5577	5	
090607	13:40	817	PR06 beast	10	4012	saw	
090607	13:40	817	JSPR09	11	4651	6	
090607	13:40	817	PR09 album	12	5846	gas	
090607	13:40	817	JSPR21	13	4834	4	
090607	13:40	817	PR21 innocence	14	6578	contact	
090607	13:40	817	JSPR01	15	3587	6	
090607	13:40	817	PR01 cash	16	3212	cash	
090607	13:40	817	JSPR11	17	3781	7	
090607	13:40	817	PR11 ounce	18	4554	bounce	
090607	13:40	817	JSPR25	19	4185	6	
090607	13:40	817	PR25 saliva	20	2933	alive	
090607	13:40	817	JSPR30	21	4563	4	
090607	13:40	817	PR30 maiden	22	3483	maiden	
090607	13:40	817	JSPR03	23	9998	7	
090607	13:40	817	PR03 acre	24	3119	scare	
090607	13:40	817	JSPR13	25	6627	3	
090607	13:40	817	PR13 ambition	26	3927	ambition	
090607	13:40	817	JSPR04	27	4229	5	
090607	13:40	817	PR04 diaper	28	2713	diaper	
090607	13:40	817	JSPR28	29	18155	6	
090607	13:40	817	PR28 challenge	30	4939	challenge	
090607	13:40	817	JSUR42	1	7079	6	
090607	13:40	817	UR42 sergeant	2	5522	sergeant	
090607	13:40	817	JSUR52	3	3452	4	
090607	13:40	817	UR52 knight	4	3286	knight	
090607	13:40	817	JSLH01	5	4657	5	
090607	13:40	817	LH01 brain	6	3093	brain	
090607	13:40	817	JSHL45	7	4785	7	
090607	13:40	817	HL45 words	8	4885	voice	
090607	13:40	817	JSLH03	9	4418	6	
090607	13:40	817	LH03 yard	10	2479	yard	
090607	13:40	817	JSHL21	11	9737	4	
090607	13:40	817	HL21 empire	12	3192	empire	
090607	13:40	817	JSLH38	13	5637	6	
090607	13:40	817	LH38 paint	14	5021	freeze	
090607	13:40	817	JSLH43	15	4657	7	
090607	13:40	817	LH43 noise	16	2881	noise	
090607	13:40	817	JSLH37	17	8033	3	
090607	13:40	817	LH37 pad	18	2565	pad	
090607	13:40	817	JSHL07	19	3313	4	
090607	13:40	817	HL07 king	20	2666	king	
090607	13:40	817	JSHL39	21	3473	5	
090607	13:40	817	HL39 book	22	2261	book	
090607	13:40	817	JSLH24	23	4102	7	
090607	13:40	817	LH24 feeling	24	3024	feeling	
090607	13:40	817	JSHL42	25	4368	5	
090607	13:40	817	HL42 pie	26	2966	pie	
090607	13:40	817	JSUR30	27	4626	5	
090607	13:40	817	UR30 lover	28	4465	cover	
090607	13:40	817	JSUR95	29	3574	8	
090607	13:40	817	UR95 fool	30	2590	fool	
090607	13:40	817	JSLH20	31	7583	6	
090607	13:40	817	LH20 violation	32	4198	control	
090607	13:40	817	JSUR96	33	4315	7	
090607	13:40	817	UR96 dessert	34	3398	desert	
090607	13:40	817	JSUR66	35	2841	5	
090607	13:40	817	UR66 chief	36	4018	chief	
090607	13:40	817	JSHL17	37	7300	7	
090607	13:40	817	HL17 soap	38	2858	soap	
090607	13:40	817	JSUR06	39	5894	5	
090607	13:40	817	UR06 cello	40	5337	cello	
090607	13:40	817	JSLH32	41	10061	7	
090607	13:40	817	LH32 capacity	42	7201	carpet	
090607	13:40	817	JSUR103	43	2797	8	
090607	13:40	817	UR103 hula	44	6740	hello	
090607	13:40	817	JSHL23	45	6281	4	
090607	13:40	817	HL23 baby	46	4232	bed	
090607	13:40	817	JSUR63	47	3282	5	
090607	13:40	817	UR63 alley	48	2514	valley	
090607	13:40	817	JSLH11	49	2816	6	
090607	13:40	817	LH11 cancer	50	3417	cancer	
090607	13:40	817	JSHL03	51	3813	7	
090607	13:40	817	HL03 cigarette	52	3207	cigarette	
090607	13:40	817	JSUR28	53	3289	5	
090607	13:40	817	UR28 bang	54	2167	bang	
090607	13:40	817	JSLH04	55	4468	4	
090607	13:40	817	LH04 grade	56	2885	grade	
090607	13:40	817	JSHL01	57	3723	6	
090607	13:40	817	HL01 elephant	58	5253	elephant	
090607	13:40	817	JSLH27	59	5081	5	
090607	13:40	817	LH27 condition	60	3180	condition	
090607	13:40	817	JSLH51	61	3245	6	
090607	13:40	817	LH51 exit	62	2834	exit	
090607	13:40	817	JSLH07	63	2858	8	
090607	13:40	817	LH07 rear	64	2160	rear	
090607	13:40	817	JSHL41	65	8665	4	
090607	13:40	817	HL41 hand	66	2071	hand	
090607	13:40	817	JSUR50	67	4286	6	
090607	13:40	817	UR50 crane	68	3367	crane	
090607	13:40	817	JSUR76	69	15317	5	
090607	13:40	817	UR76 dignity	70	3280	dignity	
090607	13:40	817	JSUR69	71	5574	6	
090607	13:40	817	UR69 flashlight	72	5664	flashlight	
090607	13:40	817	JSUR85	73	3602	3	
090607	13:40	817	UR85 stroke	74	3622	stroke	
090607	13:40	817	JSHL47	75	10028	7	
090607	13:40	817	HL47 horse	76	2150	horse	
090607	13:40	817	JSHL49	77	4056	6	
090607	13:40	817	HL49 spice	78	2515	spice	
090607	13:40	817	JSUR22	79	4427	9	
090607	13:40	817	UR22 thesaurus	80	6938	baseball	
090607	13:40	817	JSLH25	81	2660	6	
090607	13:40	817	LH25 track	82	2489	track	
090607	13:40	817	JSUR82	83	3381	8	
090607	13:40	817	UR82 campus	84	2518	campus	
090607	13:40	817	JSLH02	85	2460	6	
090607	13:40	817	LH02 harm	86	2019	barn	
090607	13:40	817	JSLH14	87	3930	6	
090607	13:40	817	LH14 note	88	1954	note	
090607	13:40	817	JSUR70	89	2279	6	
090607	13:40	817	UR70 pajamas	90	2225	plate	
090607	13:40	817	JSHL31	91	2557	7	
090607	13:40	817	HL31 war	92	2595	work	
090607	13:40	817	JSLH50	93	5837	7	
090607	13:40	817	LH50 measure	94	2185	measure	
090607	13:40	817	JSUR60	95	4055	7	
090607	13:40	817	UR60 plaque	96	2598	plane	
090607	13:40	817	JSUR68	97	3007	6	
090607	13:40	817	UR68 fatigue	98	3263	fatigue	
090607	13:40	817	JSUR20	99	9287	4	
090607	13:40	817	UR20 climax	100	3144	climax	
090607	13:40	817	JSHL09	101	6649	5	
090607	13:40	817	HL09 chalk	102	1854	chalk	
090607	13:40	817	JSLH09	103	3008	4	
090607	13:40	817	LH09 piece	104	2607	piece	
090607	13:40	817	JSUR27	105	3732	7	
090607	13:40	817	UR27 consequence	106	4217	consequence	
090607	13:40	817	JSLH30	107	3218	6	
090607	13:40	817	LH30 assignment	108	2969	assignment	
090607	13:40	817	JSUR67	109	3328	5	
090607	13:40	817	UR67 producer	110	2813	produce	
090607	13:40	817	JSUR13	111	2854	5	
090607	13:40	817	UR13 almanac	112	4896	balance	
090607	13:40	817	JSUR107	113	7659	6	
090607	13:40	817	UR107 cocaine	114	2282	cocaine	
090607	13:40	817	JSUR65	115	2346	7	
090607	13:40	817	UR65 checkers	116	4213	checkers	
090607	13:40	817	JSUR59	117	2863	8	
090607	13:40	817	UR59 copper	118	4238	copper	
090607	13:40	817	JSHL53	119	4182	7	
090607	13:40	817	HL53 fish	120	2428	fish	
090607	13:40	817	JSUR47	121	3525	6	
090607	13:40	817	UR47 chimpanzee	122	5751	chimpanzee	
090607	13:40	817	JSUR58	123	2703	6	
090607	13:40	817	UR58 answer	124	2623	answer	
090607	13:40	817	JSLH53	125	2579	8	
090607	13:40	817	LH53 core	126	1736	core	
090607	13:40	817	JSUR105	127	3372	5	
090607	13:40	817	UR105 curtain	128	2624	curtain	
090607	13:40	817	JSHL05	129	3208	6	
090607	13:40	817	HL05 mountain	130	3367	mountain	
090607	13:40	817	JSUR64	131	4822	6	
090607	13:40	817	UR64 fist	132	6334	fifty	
090607	13:40	817	JSUR32	133	3492	5	
090607	13:40	817	UR32 navigator	134	3920	navigator	
090607	13:40	817	JSUR04	135	2671	6	
090607	13:40	817	UR04 marsh	136	3993	marsh	
090607	13:40	817	JSHL34	137	3454	7	
090607	13:40	817	HL34 hunger	138	2062	hunger	
090607	13:40	817	JSUR106	139	2380	8	
090607	13:40	817	UR106 eagle	140	1863	eagle	
090607	13:40	817	JSUR77	141	1966	6	
090607	13:40	817	UR77 uncle	142	1764	uncle	
090607	13:40	817	JSUR35	143	7454	4	
090607	13:40	817	UR35 cause	144	1575	cause	
090607	13:40	817	JSHL43	145	2664	7	
090607	13:40	817	HL43 money	146	1552	money	
090607	13:40	817	JSLH23	147	4770	8	
090607	13:40	817	LH23 possibility	148	6467	possibility	
090607	13:40	817	JSUR36	149	9201	7	
090607	13:40	817	UR36 denim	150	6185	denim	
090607	13:40	817	JSHL24	151	5837	6	
090607	13:40	817	HL24 eye	152	1757	eye	
090607	13:40	817	JSLH22	153	2579	7	
090607	13:40	817	LH22 crowd	154	1794	crowd	
090607	13:40	817	JSLH05	155	2200	6	
090607	13:40	817	LH05 chain	156	1585	chain	
090607	13:40	817	JSUR45	157	2391	6	
090607	13:40	817	UR45 bridge	158	2516	bridge	
090607	13:40	817	JSHL33	159	2187	5	
090607	13:40	817	HL33 joke	160	1289	joke	
090607	13:40	817	JSUR14	161	2876	7	
090607	13:40	817	UR14 fudge	162	2063	fudge	
090607	13:40	817	JSUR46	163	3954	6	
090607	13:40	817	UR46 content	164	1795	content	
090607	13:40	817	JSUR78	165	3409	8	
090607	13:40	817	UR78 blender	166	2041	blender	
090607	13:40	817	JSUR62	167	4548	5	
090607	13:40	817	UR62 chemistry	168	2460	chemistry	
090607	13:40	817	JSUR75	169	4049	5	
090607	13:40	817	UR75 awe	170	1408	awe	
090607	13:40	817	JSLH46	171	5270	3	
090607	13:40	817	LH46 submarine	172	2517	submarine	
090607	13:40	817	JSLH17	173	2951	5	
090607	13:40	817	LH17 life	174	5058	beauty	
090607	13:40	817	JSUR21	175	2500	5	
090607	13:40	817	UR21 ore	176	1810	score	
090607	13:40	817	JSUR17	177	1967	7	
090607	13:40	817	UR17 trance	178	1654	trance	
090607	13:40	817	JSUR98	179	2566	5	
090607	13:40	817	UR98 latch	180	1888	latch	
090607	13:40	817	JSHL36	181	3023	4	
090607	13:40	817	HL36 football	182	2132	football	
090607	13:40	817	JSHL32	183	3452	5	
090607	13:40	817	HL32 television	184	3615	television	
090607	13:40	817	JSLH19	185	7028	6	
090607	13:40	817	LH19 snob	186	5832	snob	
090607	13:40	817	JSHL51	187	3105	5	
090607	13:40	817	HL51 color	188	3307	color	
090607	13:40	817	JSHL50	189	3710	6	
090607	13:40	817	HL50 doctor	190	1767	doctor	
090607	13:40	817	JSUR53	191	2243	5	
090607	13:40	817	UR53 hell	192	1955	hell	
090607	13:40	817	JSUR87	193	3038	6	
090607	13:40	817	UR87 duty	194	1788	duty	
090607	13:40	817	JSHL25	195	3108	6	
090607	13:40	817	HL25 cut	196	1554	cut	
090607	13:40	817	JSHL14	197	2270	7	
090607	13:40	817	HL14 milk	198	1352	milk	
090607	13:40	817	JSHL10	199	3181	7	
090607	13:40	817	HL10 cow	200	2026	cow	
090607	13:40	817	JSUR01	201	4381	8	
090607	13:40	817	UR01 file	202	2358	crock	
090607	13:40	817	JSUR55	203	2689	7	
090607	13:40	817	UR55 bargain	204	3673	bargain	
090607	13:40	817	JSUR07	205	2070	6	
090607	13:40	817	UR07 gathering	206	2704	gathering	
090607	13:40	817	JSUR74	207	2009	8	
090607	13:40	817	UR74 suitcase	208	2233	suitcase	
090607	13:40	817	JSUR34	209	2135	7	
090607	13:40	817	UR34 charity	210	2119	charity	
090607	13:40	817	JSLH54	211	2953	6	
090607	13:40	817	LH54 limit	212	1411	limit	
090607	13:40	817	JSUR54	213	2790	4	
090607	13:40	817	UR54 steam	214	1551	steam	
090607	13:40	817	JSUR24	215	2980	5	
090607	13:40	817	UR24 kid	216	1199	kid	
090607	13:40	817	JAPR26	1	14546	1	
090607	13:40	817	PR26 colonel	2	5513	cologne	
090607	13:40	817	JAPR24	3	6504	4	
090607	13:40	817	PR24 pest	4	2292	pet	
090607	13:40	817	JAPR08	5	5328	7	
090607	13:40	817	PR08 beef	6	2318	beef	
090607	13:40	817	JAPR05	7	9454	7	
090607	13:40	817	PR05 calf	8	2224	calf	
090607	13:40	817	JAPR14	9	12604	5	
090607	13:40	817	PR14 religion	10	2288	religion	
090607	13:40	817	JAPR19	11	4859	6	
090607	13:40	817	PR19 void	12	1921	void	
090607	13:40	817	JAPR12	13	3946	8	
090607	13:40	817	PR12 royalty	14	3341	royalty	
090607	13:40	817	JAPR02	15	8106	4	
090607	13:40	817	PR02 wrinkle	16	3729	wrinkle	
090607	13:40	817	JAPR10	17	5680	3	
090607	13:40	817	PR10 camel	18	2097	camel	
090607	13:40	817	JAPR15	19	21115	4	
090607	13:40	817	PR15 depletion	20	3112	deception	
090607	13:40	817	JAPR20	21	9856	6	
090607	13:40	817	PR20 advertisement	22	5075	advertise	
090607	13:40	817	JAPR29	23	10006	5	
090607	13:40	817	PR29 mermaid	24	2481	mermaid	
090607	13:40	817	JAPR16	25	3704	5	
090607	13:40	817	PR16 compulsion	26	9343	confusion	
090607	13:40	817	JAPR22	27	3250	6	
090607	13:40	817	PR22 ass	28	4394	assume	
090607	13:40	817	JAUR43	1	2801	6	
090607	13:40	817	UR43 balloon	2	5073	balloon	
090607	13:40	817	JAUR102	3	3122	7	
090607	13:40	817	UR102 velocity	4	4035	velocity	
090607	13:40	817	JAHL08	5	7462	7	
090607	13:40	817	HL08 math	6	1953	math	
090607	13:40	817	JALH13	7	4240	6	
090607	13:40	817	LH13 crease	8	2250	crease	
090607	13:40	817	JALH08	9	4364	6	
090607	13:40	817	LH08 house	10	1473	house	
090607	13:40	817	JAUR71	11	9325	7	
090607	13:40	817	UR71 padding	12	1821	padding	
090607	13:40	817	JAUR25	13	3712	8	
090607	13:40	817	UR25 partner	14	1973	partner	
090607	13:40	817	JALH47	15	3367	6	
090607	13:40	817	LH47 detergent	16	2373	detergent	
090607	13:40	817	JALH36	17	2789	7	
090607	13:40	817	LH36 gang	18	2520	gang	
090607	13:40	817	JAHL15	19	4835	5	
090607	13:40	817	HL15 bomb	20	3094	bomb	
090607	13:40	817	JAUR84	21	7337	5	
090607	13:40	817	UR84 flag	22	1722	flag	
090607	13:40	817	JAHL29	23	4091	4	
090607	13:40	817	HL29 ring	24	1909	ring	
090607	13:40	817	JALH29	25	10994	7	
090607	13:40	817	LH29 closet	26	2566	closet	
090607	13:40	817	JALH52	27	5357	7	
090607	13:40	817	LH52 bureau	28	2958	bureau	
090607	13:40	817	JALH48	29	3123	5	
090607	13:40	817	LH48 outcome	30	1626	outcome	
090607	13:40	817	JAUR29	31	4238	3	
090607	13:40	817	UR29 patrol	32	2361	patrol	
090607	13:40	817	JALH28	33	4468	4	
090607	13:40	817	LH28 vagrant	34	4170	vagrant	
090607	13:40	817	JAHL52	35	6722	6	
090607	13:40	817	HL52 sand	36	1823	sand	
090607	13:40	817	JAHL44	37	13750	6	
090607	13:40	817	HL44 baseball	38	2506	baseball	
090607	13:40	817	JAUR37	39	23682	4	
090607	13:40	817	UR37 cloth	40	2184	cloth	
090607	13:40	817	JAUR81	41	15547	6	
090607	13:40	817	UR81 acid	42	2176	acid	
090607	13:40	817	JAUR88	43	5782	5	
090607	13:40	817	UR88 circus	44	2482	control	
090607	13:40	817	JALH34	45	2089	8	
090607	13:40	817	LH34 panel	46	1474	panel	
090607	13:40	817	JAHL54	47	3510	5	
090607	13:40	817	HL54 indian	48	1405	indian	
090607	13:40	817	JAUR48	49	3988	5	
090607	13:40	817	UR48 democracy	50	10133	dumbass	
090607	13:40	817	JAUR40	51	11804	6	
090607	13:40	817	UR40 dancer	52	1488	dancer	
090607	13:40	817	JAHL38	53	3347	8	
090607	13:40	817	HL38 boat	54	3321	boat	
090607	13:40	817	JALH18	55	11542	5	
090607	13:40	817	LH18 edge	56	4310	key	
090607	13:40	817	JAUR89	57	4205	6	
090607	13:40	817	UR89 crow	58	1537	crow	
090607	13:40	817	JAUR18	59	4276	6	
090607	13:40	817	UR18 relief	60	2204	relief	
090607	13:40	817	JAUR80	61	4285	6	
090607	13:40	817	UR80 antique	62	1948	antique	
090607	13:40	817	JAUR15	63	16244	6	
090607	13:40	817	UR15 compass	64	1625	compass	
090607	13:40	817	JAUR08	65	3370	4	
090607	13:40	817	UR08 assistant	66	2114	assistant	
090607	13:40	817	JAUR94	67	3042	6	
090607	13:40	817	UR94 bristle	68	2520	bristle	
090607	13:40	817	JAUR61	69	3149	4	
090607	13:40	817	UR61 suicide	70	3282	suicide	
090607	13:40	817	JAUR05	71	2954	6	
090607	13:40	817	UR05 lease	72	1508	lease	
090607	13:40	817	JAHL28	73	3754	5	
090607	13:40	817	HL28 bird	74	1445	bird	
090607	13:40	817	JAUR73	75	2107	8	
090607	13:40	817	UR73 kite	76	1590	bottle	
090607	13:40	817	JAUR79	77	6781	5	
090607	13:40	817	UR79 beetle	78	1757	beetle	
090607	13:40	817	JAUR31	79	3161	4	
090607	13:40	817	UR31 diameter	80	2486	diameter	
090607	13:40	817	JAUR26	81	2813	7	
090607	13:40	817	UR26 eternity	82	4543	eternity	
090607	13:40	817	JALH21	83	2778	7	
090607	13:40	817	LH21 monument	84	2071	monument	
090607	13:40	817	JAHL48	85	11494	7	
090607	13:40	817	HL48 airplane	86	4798	airplane	
090607	13:40	817	JALH10	87	2809	6	
090607	13:40	817	LH10 care	88	2537	care	
090607	13:40	817	JALH31	89	2799	7	
090607	13:40	817	LH31 self	90	2667	self	
090607	13:40	817	JAUR38	91	4249	5	
090607	13:40	817	UR38 energy	92	7251	energy	
090607	13:40	817	JAUR86	93	4876	4	
090607	13:40	817	UR86 boulevard	94	5372	boulevard	
090607	13:40	817	JAUR90	95	6227	5	
090607	13:40	817	UR90 sailing	96	2865	sailing	
090607	13:40	817	JAHL30	97	2299	5	
090607	13:40	817	HL30 air	98	2383	air	
090607	13:40	817	JAUR57	99	3180	6	
090607	13:40	817	UR57 benefit	100	3551	benefit	
090607	13:40	817	JALH12	101	3365	8	
090607	13:40	817	LH12 addition	102	2333	addiction	
090607	13:40	817	JAHL04	103	3072	5	
090607	13:40	817	HL04 beer	104	1473	beer	
090607	13:40	817	JAUR11	105	3412	4	
090607	13:40	817	UR11 foundation	106	2104	foundation	
090607	13:40	817	JALH33	107	3448	6	
090607	13:40	817	LH33 fable	108	1711	fable	
090607	13:40	817	JAHL11	109	4205	6	
090607	13:40	817	HL11 rock	110	1467	rock	
090607	13:40	817	JALH06	111	2034	6	
090607	13:40	817	LH06 element	112	5005	element	
090607	13:40	817	JAHL37	113	2377	6	
090607	13:40	817	HL37 thread	114	2106	thread	
090607	13:40	817	JALH44	115	6726	7	
090607	13:40	817	LH44 vessel	116	2720	vessel	
090607	13:40	817	JALH39	117	2975	6	
090607	13:40	817	LH39 reward	118	1808	reward	
090607	13:40	817	JALH49	119	3276	5	
090607	13:40	817	LH49 kindness	120	3074	kindness	
090607	13:40	817	JAUR39	121	3222	7	
090607	13:40	817	UR39 faith	122	1476	faith	
090607	13:40	817	JAUR33	123	1814	6	
090607	13:40	817	UR33 horror	124	1847	horror	
090607	13:40	817	JAUR02	125	2002	6	
090607	13:40	817	UR02 comma	126	3933	comma	
090607	13:40	817	JAUR93	127	2326	7	
090607	13:40	817	UR93 catcher	128	3153	catcher	
090607	13:40	817	JAHL19	129	2969	5	
090607	13:40	817	HL19 car	130	1498	car	
090607	13:40	817	JAUR49	131	5691	4	
090607	13:40	817	UR49 casket	132	4185	casket	
090607	13:40	817	JAHL35	133	3619	5	
090607	13:40	817	HL35 cake	134	2855	cake	
090607	13:40	817	JAUR44	135	2121	7	
090607	13:40	817	UR44 rot	136	3241	carot	
090607	13:40	817	JAUR91	137	3780	5	
090607	13:40	817	UR91 anteater	138	1335	eater	
090607	13:40	817	JAHL46	139	2216	8	
090607	13:40	817	HL46 butter	140	1950	butter	
090607	13:40	817	JAUR09	141	5738	9	
090607	13:40	817	UR09 education	142	2561	education	
090607	13:40	817	JAUR83	143	2051	7	
090607	13:40	817	UR83 lesson	144	1732	lesson	
090607	13:40	817	JAHL18	145	2446	6	
090607	13:40	817	HL18 paper	146	1505	paper	
090607	13:40	817	JALH16	147	4671	5	
090607	13:40	817	LH16 power	148	1935	power	
090607	13:40	817	JAHL06	149	3265	4	
090607	13:40	817	HL06 egg	150	2014	egg	
090607	13:40	817	JAHL20	151	1971	8	
090607	13:40	817	HL20 wine	152	1483	wine	
090607	13:40	817	JAHL26	153	6336	5	
090607	13:40	817	HL26 light	154	2756	light	
090607	13:40	817	JALH42	155	3600	6	
090607	13:40	817	LH42 thought	156	2504	thought	
090607	13:40	817	JAUR41	157	3556	5	
090607	13:40	817	UR41 chime	158	1490	chime	
090607	13:40	817	JAPR18	159	3523	5	
090607	13:40	817	PR18 clorox	160	2058	stuck	
090607	13:40	817	JALH35	161	3724	6	
090607	13:40	817	LH35 shelter	162	1760	shelter	
090607	13:40	817	JAUR16	163	11292	6	
090607	13:40	817	UR16 century	164	2092	century	
090607	13:40	817	JAUR108	165	3209	6	
090607	13:40	817	UR108 shield	166	2135	shield	
090607	13:40	817	JAHL12	167	2280	7	
090607	13:40	817	HL12 space	168	1635	space	
090607	13:40	817	JAUR23	169	12153	4	
090607	13:40	817	UR23 abundance	170	4010	abundance	
090607	13:40	817	JAUR104	171	3255	6	
090607	13:40	817	UR104 aardvark	172	3794	aardvark	
090607	13:40	817	JAUR56	173	14769	5	
090607	13:40	817	UR56 antler	174	1725	attack	
090607	13:40	817	JAHL16	175	3441	6	
090607	13:40	817	HL16 broom	176	2170	broom	
090607	13:40	817	JAHL40	177	2279	5	
090607	13:40	817	HL40 temperature	178	2022	temperature	
090607	13:40	817	JAUR101	179	3855	4	
090607	13:40	817	UR101 beard	180	2873	beard	
090607	13:40	817	JALH45	181	3111	6	
090607	13:40	817	LH45 intellect	182	2568	intelligence	
090607	13:40	817	JAUR92	183	3418	6	
090607	13:40	817	UR92 dart	184	1955	dark	
090607	13:40	817	JAUR19	185	4149	5	
090607	13:40	817	UR19 bison	186	7034	balloon	
090607	13:40	817	JAUR99	187	2275	6	
090607	13:40	817	UR99 branch	188	2326	branch	
090607	13:40	817	JAUR10	189	2391	7	
090607	13:40	817	UR10 tribe	190	2783	tribe	
090607	13:40	817	JAUR72	191	2989	7	
090607	13:40	817	UR72 band	192	1732	band	
090607	13:40	817	JAUR100	193	3023	7	
090607	13:40	817	UR100 comb	194	1789	comb	
090607	13:40	817	JALH26	195	2208	4	
090607	13:40	817	LH26 center	196	2352	center	
090607	13:40	817	JAUR03	197	1848	6	
090607	13:40	817	UR03 vehicle	198	3489	vehicle	
090607	13:40	817	JAHL22	199	12730	6	
090607	13:40	817	HL22 problem	200	1996	problem	
090607	13:40	817	JALH15	201	4242	7	
090607	13:40	817	LH15 blessing	202	2481	blessing	
090607	13:40	817	JAHL27	203	1989	6	
090607	13:40	817	HL27 rain	204	1251	rain	
090607	13:40	817	JAHL02	205	1997	6	
090607	13:40	817	HL02 flower	206	1476	flower	
090607	13:40	817	JALH41	207	3206	6	
090607	13:40	817	LH41 girl	208	1423	girl	
090607	13:40	817	JAHL13	209	4088	6	
090607	13:40	817	HL13 map	210	1108	map	
090607	13:40	817	JAUR97	211	3852	6	
090607	13:40	817	UR97 banner	212	1659	banner	
090607	13:40	817	JALH40	213	3325	4	
090607	13:40	817	LH40 field	214	1713	field	
090607	13:40	817	JAUR51	215	6973	3	
090607	13:40	817	UR51 cabbage	216	3717	cabbage	
090607	13:40	817	JAUR12	217	1802	5	
090607	13:40	817	UR12 unicorn	218	2148	unicorn	
