date	time	subject	trialcode	trialnum	latency	response	
090607	15:06	823	JAPR17	1	68463	5	
090607	15:06	823	PR17 emerald	2	39011	tree	
090607	15:06	823	JAPR27	3	18066	7	
090607	15:06	823	PR27 wheat	4	19549	women	
090607	15:06	823	JAPR07	5	16734	10	
090607	15:06	823	PR07 bog	6	15947	music	
090607	15:06	823	JAPR23	7	24958	6	
090607	15:06	823	PR23 companion	8	4265	cuba	
090607	15:06	823	JAPR06	9	31635	8	
090607	15:06	823	PR06 beast	10	5289	blonde	
090607	15:06	823	JAPR09	11	9854	6	
090607	15:06	823	PR09 album	12	6308	wake up	
090607	15:06	823	JAPR21	13	13616	3	
090607	15:06	823	PR21 innocence	14	6528	view	
090607	15:06	823	JAPR01	15	10552	6	
090607	15:06	823	PR01 cash	16	3163	nut	
090607	15:06	823	JAPR11	17	20887	4	
090607	15:06	823	PR11 ounce	18	2975	sun	
090607	15:06	823	JAPR25	19	7016	10	
090607	15:06	823	PR25 saliva	20	4876	eat	
090607	15:06	823	JAPR30	21	9971	9	
090607	15:06	823	PR30 maiden	22	7460	many	
090607	15:06	823	JAPR03	23	7667	10	
090607	15:06	823	PR03 acre	24	3322	tree	
090607	15:06	823	JAPR13	25	11448	6	
090607	15:06	823	PR13 ambition	26	3020	creature	
090607	15:06	823	JAPR04	27	7542	9	
090607	15:06	823	PR04 diaper	28	7871	necklace	
090607	15:06	823	JAUR53	1	17723	8	
090607	15:06	823	UR53 hell	2	4777	tailor	
090607	15:06	823	JAUR13	3	7321	8	
090607	15:06	823	UR13 almanac	4	4434	reptile	
090607	15:06	823	JAHL07	5	4622	10	
090607	15:06	823	HL07 king	6	2458	king	
090607	15:06	823	JALH05	7	7244	7	
090607	15:06	823	LH05 chain	8	5068	stick	
090607	15:06	823	JALH02	9	25930	9	
090607	15:06	823	LH02 harm	10	3691	harm	
090607	15:06	823	JAUR64	11	11022	6	
090607	15:06	823	UR64 fist	12	3949	number	
090607	15:06	823	JAUR32	13	7218	7	
090607	15:06	823	UR32 navigator	14	3154	thread	
090607	15:06	823	JALH50	15	3049	7	
090607	15:06	823	LH50 measure	16	3315	sum	
090607	15:06	823	JALH27	17	20800	6	
090607	15:06	823	LH27 condition	18	9700	case	
090607	15:06	823	JAHL17	19	10252	5	
090607	15:06	823	HL17 soap	20	2539	soap	
090607	15:06	823	JAUR74	21	11658	7	
090607	15:06	823	UR74 suitcase	22	3725	morning	
090607	15:06	823	JAHL36	23	8125	1	
090607	15:06	823	HL36 football	24	3465	football	
090607	15:06	823	JALH20	25	6099	9	
090607	15:06	823	LH20 violation	26	5681	sex	
090607	15:06	823	JALH54	27	10134	10	
090607	15:06	823	LH54 limit	28	4280	far	
090607	15:06	823	JALH51	29	12441	10	
090607	15:06	823	LH51 exit	30	3129	plug	
090607	15:06	823	JAUR35	31	6589	10	
090607	15:06	823	UR35 cause	32	4034	dark	
090607	15:06	823	JALH19	33	4039	10	
090607	15:06	823	LH19 snob	34	7168	booger	
090607	15:06	823	JAHL51	35	11762	6	
090607	15:06	823	HL51 color	36	7548	color	
090607	15:06	823	JAHL47	37	4434	7	
090607	15:06	823	HL47 horse	38	2909	bull	
090607	15:06	823	JAUR45	39	6747	8	
090607	15:06	823	UR45 bridge	40	3603	wedding	
090607	15:06	823	JAUR69	41	8592	8	
090607	15:06	823	UR69 flashlight	42	2719	sweet	
090607	15:06	823	JAUR76	43	28574	8	
090607	15:06	823	UR76 dignity	44	5470	number	
090607	15:06	823	JALH24	45	5376	8	
090607	15:06	823	LH24 feeling	46	2923	faith	
090607	15:06	823	JAHL53	47	3818	10	
090607	15:06	823	HL53 fish	48	2810	fish	
090607	15:06	823	JAUR55	49	7189	10	
090607	15:06	823	UR55 bargain	50	3520	church	
090607	15:06	823	JAUR50	51	8330	8	
090607	15:06	823	UR50 crane	52	5631	period	
090607	15:06	823	JAHL43	53	4459	8	
090607	15:06	823	HL43 money	54	2615	money	
090607	15:06	823	JALH11	55	7774	7	
090607	15:06	823	LH11 cancer	56	6040	ocean	
090607	15:06	823	JAUR77	57	25547	9	
090607	15:06	823	UR77 uncle	58	3056	lesson	
090607	15:06	823	JAUR27	59	16705	6	
090607	15:06	823	UR27 consequence	60	3703	truth	
090607	15:06	823	JAUR68	61	14214	10	
090607	15:06	823	UR68 fatigue	62	4652	water	
090607	15:06	823	JAUR22	63	6070	8	
090607	15:06	823	UR22 thesaurus	64	8632	chance	
090607	15:06	823	JAUR07	65	8282	7	
090607	15:06	823	UR07 gathering	66	2605	tape	
090607	15:06	823	JAUR95	67	3906	7	
090607	15:06	823	UR95 fool	68	2513	look	
090607	15:06	823	JAUR63	69	9539	7	
090607	15:06	823	UR63 alley	70	2822	pollen	
090607	15:06	823	JAUR06	71	10760	6	
090607	15:06	823	UR06 cello	72	5908	temperature	
090607	15:06	823	JAHL34	73	11279	8	
090607	15:06	823	HL34 hunger	74	3599	hunger	
090607	15:06	823	JAUR66	75	6104	6	
090607	15:06	823	UR66 chief	76	3180	cheese	
090607	15:06	823	JAUR67	77	9624	4	
090607	15:06	823	UR67 producer	78	4593	producer	
090607	15:06	823	JAUR36	79	10811	7	
090607	15:06	823	UR36 denim	80	3880	agreement	
090607	15:06	823	JAUR34	81	22583	9	
090607	15:06	823	UR34 charity	82	6748	info	
090607	15:06	823	JALH14	83	7824	7	
090607	15:06	823	LH14 note	84	3363	pay	
090607	15:06	823	JAHL50	85	7181	5	
090607	15:06	823	HL50 doctor	86	3432	doctor	
090607	15:06	823	JALH03	87	5983	7	
090607	15:06	823	LH03 yard	88	2939	yard	
090607	15:06	823	JALH22	89	3398	7	
090607	15:06	823	LH22 crowd	90	3171	crowd	
090607	15:06	823	JAUR46	91	4007	7	
090607	15:06	823	UR46 content	92	2849	plastic	
090607	15:06	823	JAUR75	93	11664	5	
090607	15:06	823	UR75 awe	94	3070	chop	
090607	15:06	823	JAUR78	95	3364	10	
090607	15:06	823	UR78 blender	96	5245	hot	
090607	15:06	823	JAHL39	97	6938	7	
090607	15:06	823	HL39 book	98	1942	book	
090607	15:06	823	JAUR62	99	3279	8	
090607	15:06	823	UR62 chemistry	100	6044	science	
090607	15:06	823	JALH04	101	9734	6	
090607	15:06	823	LH04 grade	102	3466	grade	
090607	15:06	823	JAHL03	103	6894	7	
090607	15:06	823	HL03 cigarette	104	4502	cigarette	
090607	15:06	823	JAUR20	105	12918	8	
090607	15:06	823	UR20 climax	106	3080	weather	
090607	15:06	823	JALH23	107	6456	5	
090607	15:06	823	LH23 possibility	108	12639	possibility	
090607	15:06	823	JAHL09	109	11046	7	
090607	15:06	823	HL09 chalk	110	3590	chalk	
090607	15:06	823	JALH01	111	4740	6	
090607	15:06	823	LH01 brain	112	6935	brain	
090607	15:06	823	JAHL42	113	20732	7	
090607	15:06	823	HL42 pie	114	5365	pie	
090607	15:06	823	JALH43	115	3507	8	
090607	15:06	823	LH43 noise	116	3637	nice	
090607	15:06	823	JALH30	117	10593	8	
090607	15:06	823	LH30 assignment	118	5222	assignment	
090607	15:06	823	JALH53	119	14906	8	
090607	15:06	823	LH53 core	120	9686	learn	
090607	15:06	823	JAUR47	121	7520	8	
090607	15:06	823	UR47 chimpanzee	122	4959	cleaner	
090607	15:06	823	JAUR42	123	20009	10	
090607	15:06	823	UR42 sergeant	124	3914	clean	
090607	15:06	823	JAUR01	125	9221	8	
090607	15:06	823	UR01 file	126	9060	hands	
090607	15:06	823	JAUR87	127	5962	9	
090607	15:06	823	UR87 duty	128	2334	small	
090607	15:06	823	JAHL24	129	8147	9	
090607	15:06	823	HL24 eye	130	3103	eye	
090607	15:06	823	JAUR58	131	7950	7	
090607	15:06	823	UR58 answer	132	2447	foot	
090607	15:06	823	JAHL41	133	5859	5	
090607	15:06	823	HL41 hand	134	2713	hand	
090607	15:06	823	JAUR54	135	5617	5	
090607	15:06	823	UR54 steam	136	3808	system	
090607	15:06	823	JAUR82	137	3475	7	
090607	15:06	823	UR82 campus	138	3787	election	
090607	15:06	823	JAHL49	139	6596	6	
090607	15:06	823	HL49 spice	140	2879	piece	
090607	15:06	823	JAUR103	141	4411	9	
090607	15:06	823	UR103 hula	142	2409	laugh	
090607	15:06	823	JAUR70	143	10836	9	
090607	15:06	823	UR70 pajamas	144	2345	cook	
090607	15:06	823	JAHL23	145	5698	7	
090607	15:06	823	HL23 baby	146	3662	baby	
090607	15:06	823	JALH09	147	9337	7	
090607	15:06	823	LH09 piece	148	3000	paper	
090607	15:06	823	JAHL05	149	13852	6	
090607	15:06	823	HL05 mountain	150	3444	mountain	
090607	15:06	823	JAHL25	151	4417	5	
090607	15:06	823	HL25 cut	152	2332	cut	
090607	15:06	823	JAHL32	153	8356	7	
090607	15:06	823	HL32 television	154	4841	television	
090607	15:06	823	JALH38	155	3837	7	
090607	15:06	823	LH38 paint	156	25100	cold	
090607	15:06	823	JAUR52	157	8449	10	
090607	15:06	823	UR52 knight	158	4141	kite	
090607	15:06	823	JAPR28	159	6982	10	
090607	15:06	823	PR28 challenge	160	3492	prison	
090607	15:06	823	JALH25	161	5470	8	
090607	15:06	823	LH25 track	162	3405	track	
090607	15:06	823	JAUR24	163	5986	7	
090607	15:06	823	UR24 kid	164	2177	kid	
090607	15:06	823	JAUR17	165	5139	7	
090607	15:06	823	UR17 trance	166	3196	pirate	
090607	15:06	823	JAHL10	167	2989	7	
090607	15:06	823	HL10 cow	168	2096	cow	
090607	15:06	823	JAUR30	169	9418	9	
090607	15:06	823	UR30 lover	170	14303	pillow	
090607	15:06	823	JAUR14	171	4774	8	
090607	15:06	823	UR14 fudge	172	11283	prison	
090607	15:06	823	JAUR60	173	6539	6	
090607	15:06	823	UR60 plaque	174	5116	tall	
090607	15:06	823	JAHL21	175	9366	8	
090607	15:06	823	HL21 empire	176	2464	empire	
090607	15:06	823	JAHL45	177	5347	6	
090607	15:06	823	HL45 words	178	2005	words	
090607	15:06	823	JAUR107	179	8887	10	
090607	15:06	823	UR107 cocaine	180	2284	old	
090607	15:06	823	JALH46	181	17103	3	
090607	15:06	823	LH46 submarine	182	2627	man	
090607	15:06	823	JAUR85	183	4340	4	
090607	15:06	823	UR85 stroke	184	4431	tree	
090607	15:06	823	JAUR28	185	4779	7	
090607	15:06	823	UR28 bang	186	4324	bank	
090607	15:06	823	JAUR98	187	4813	7	
090607	15:06	823	UR98 latch	188	3359	volcano	
090607	15:06	823	JAUR105	189	18494	2	
090607	15:06	823	UR105 curtain	190	3331	curtain	
090607	15:06	823	JAUR65	191	4639	8	
090607	15:06	823	UR65 checkers	192	4809	eat	
090607	15:06	823	JAUR106	193	8289	7	
090607	15:06	823	UR106 eagle	194	3411	eagle	
090607	15:06	823	JALH17	195	12398	8	
090607	15:06	823	LH17 life	196	3716	months	
090607	15:06	823	JAUR04	197	12024	9	
090607	15:06	823	UR04 marsh	198	29141	monster	
090607	15:06	823	JAHL31	199	7894	8	
090607	15:06	823	HL31 war	200	4667	years	
090607	15:06	823	JALH07	201	4342	7	
090607	15:06	823	LH07 rear	202	2118	top	
090607	15:06	823	JAHL33	203	6855	8	
090607	15:06	823	HL33 joke	204	2317	joke	
090607	15:06	823	JAHL01	205	5328	8	
090607	15:06	823	HL01 elephant	206	3283	elephant	
090607	15:06	823	JALH37	207	5298	8	
090607	15:06	823	LH37 pad	208	2852	pad	
090607	15:06	823	JAHL14	209	5029	9	
090607	15:06	823	HL14 milk	210	2180	milk	
090607	15:06	823	JAUR96	211	4868	9	
090607	15:06	823	UR96 dessert	212	4874	future	
090607	15:06	823	JALH32	213	22183	8	
090607	15:06	823	LH32 capacity	214	12662	capability	
090607	15:06	823	JAUR59	215	4681	8	
090607	15:06	823	UR59 copper	216	3366	copy	
090607	15:06	823	JAUR21	217	4976	9	
090607	15:06	823	UR21 ore	218	2862	tree	
090607	15:06	823	JSPR26	1	22110	3	
090607	15:06	823	PR26 colonel	2	6150	arm	
090607	15:06	823	JSPR24	3	15473	8	
090607	15:06	823	PR24 pest	4	3459	pet	
090607	15:06	823	JSPR08	5	6334	10	
090607	15:06	823	PR08 beef	6	3355	beef	
090607	15:06	823	JSPR05	7	13718	10	
090607	15:06	823	PR05 calf	8	3396	year	
090607	15:06	823	JSPR14	9	8248	9	
090607	15:06	823	PR14 religion	10	5401	religion	
090607	15:06	823	JSPR19	11	3507	10	
090607	15:06	823	PR19 void	12	3063	control	
090607	15:06	823	JSPR12	13	4420	10	
090607	15:06	823	PR12 royalty	14	3420	loyalty	
090607	15:06	823	JSPR02	15	7271	6	
090607	15:06	823	PR02 wrinkle	16	3753	wrinkle	
090607	15:06	823	JSPR10	17	6706	8	
090607	15:06	823	PR10 camel	18	5789	camera	
090607	15:06	823	JSPR15	19	10213	8	
090607	15:06	823	PR15 depletion	20	8625	smell	
090607	15:06	823	JSPR20	21	10528	7	
090607	15:06	823	PR20 advertisement	22	4287	control	
090607	15:06	823	JSPR29	23	5971	7	
090607	15:06	823	PR29 mermaid	24	2923	space	
090607	15:06	823	JSPR16	25	4749	9	
090607	15:06	823	PR16 compulsion	26	9770	gain	
090607	15:06	823	JSPR22	27	4214	9	
090607	15:06	823	PR22 ass	28	3983	apart	
090607	15:06	823	JSPR18	29	5349	5	
090607	15:06	823	PR18 clorox	30	2994	clean	
090607	15:06	823	JSUR33	1	23270	7	
090607	15:06	823	UR33 horror	2	9759	scare	
090607	15:06	823	JSUR41	3	3397	9	
090607	15:06	823	UR41 chime	4	2233	cold	
090607	15:06	823	JSLH06	5	3192	5	
090607	15:06	823	LH06 element	6	3262	element	
090607	15:06	823	JSHL40	7	2161	10	
090607	15:06	823	HL40 temperature	8	1543		
090607	15:06	823	JSLH10	9	5038	9	
090607	15:06	823	LH10 care	10	2248	help	
090607	15:06	823	JSHL16	11	5853	8	
090607	15:06	823	HL16 broom	12	3233	clean	
090607	15:06	823	JSLH42	13	7443	5	
090607	15:06	823	LH42 thought	14	3454	thought	
090607	15:06	823	JSLH44	15	4846	8	
090607	15:06	823	LH44 vessel	16	2981	blood	
090607	15:06	823	JSLH41	17	4095	9	
090607	15:06	823	LH41 girl	18	2249	girl	
090607	15:06	823	JSHL08	19	4554	10	
090607	15:06	823	HL08 math	20	2216	math	
090607	15:06	823	JSHL30	21	7928	8	
090607	15:06	823	HL30 air	22	4055	mad	
090607	15:06	823	JSLH34	23	2734	9	
090607	15:06	823	LH34 panel	24	3142	panel	
090607	15:06	823	JSHL37	25	7964	9	
090607	15:06	823	HL37 thread	26	3563	thread	
090607	15:06	823	JSUR23	27	4155	10	
090607	15:06	823	UR23 abundance	28	2107	class	
090607	15:06	823	JSUR94	29	3479	8	
090607	15:06	823	UR94 bristle	30	2447	stuff	
090607	15:06	823	JSLH29	31	5132	8	
090607	15:06	823	LH29 closet	32	2672	closet	
090607	15:06	823	JSUR97	33	4715	8	
090607	15:06	823	UR97 banner	34	2877	banner	
090607	15:06	823	JSUR73	35	2687	7	
090607	15:06	823	UR73 kite	36	3513	sneeze	
090607	15:06	823	JSHL15	37	9106	10	
090607	15:06	823	HL15 bomb	38	3620		
090607	15:06	823	JSUR05	39	3572	7	
090607	15:06	823	UR05 lease	40	2578	tall	
090607	15:06	823	JSLH40	41	11015	7	
090607	15:06	823	LH40 field	42	2256	land	
090607	15:06	823	JSUR09	43	4421	9	
090607	15:06	823	UR09 education	44	3823	education	
090607	15:06	823	JSHL18	45	2252	10	
090607	15:06	823	HL18 paper	46	2735	paper	
090607	15:06	823	JSUR61	47	3630	6	
090607	15:06	823	UR61 suicide	48	2689	control	
090607	15:06	823	JSLH18	49	2956	6	
090607	15:06	823	LH18 edge	50	3878	plead	
090607	15:06	823	JSHL04	51	1587	7	
090607	15:06	823	HL04 beer	52	2674	beer	
090607	15:06	823	JSUR19	53	3746	8	
090607	15:06	823	UR19 bison	54	8296	horse	
090607	15:06	823	JSLH12	55	1835	7	
090607	15:06	823	LH12 addition	56	3006	plug	
090607	15:06	823	JSHL02	57	6120	9	
090607	15:06	823	HL02 flower	58	2507	flower	
090607	15:06	823	JSLH36	59	8202	10	
090607	15:06	823	LH36 gang	60	2818	pirate	
090607	15:06	823	JSLH48	61	4708	5	
090607	15:06	823	LH48 outcome	62	2657	outcome	
090607	15:06	823	JSLH15	63	8460	9	
090607	15:06	823	LH15 blessing	64	3307	blessing	
090607	15:06	823	JSHL35	65	3346	9	
090607	15:06	823	HL35 cake	66	2323	cake	
090607	15:06	823	JSUR40	67	2741	9	
090607	15:06	823	UR40 dancer	68	2618	danger	
090607	15:06	823	JSUR88	69	4000	7	
090607	15:06	823	UR88 circus	70	3980	people	
090607	15:06	823	JSUR81	71	1545	8	
090607	15:06	823	UR81 acid	72	4530	academics	
090607	15:06	823	JSUR92	73	1287	8	
090607	15:06	823	UR92 dart	74	2901	dark	
090607	15:06	823	JSHL44	75	1959	10	
090607	15:06	823	HL44 baseball	76	2882	baseball	
090607	15:06	823	JSHL46	77	1940	8	
090607	15:06	823	HL46 butter	78	4003	butter	
090607	15:06	823	JSUR15	79	3717	9	
090607	15:06	823	UR15 compass	80	2849	heart	
090607	15:06	823	JSLH35	81	2429	9	
090607	15:06	823	LH35 shelter	82	2452	shelter	
090607	15:06	823	JSUR91	83	2797	10	
090607	15:06	823	UR91 anteater	84	2941	eater	
090607	15:06	823	JSLH08	85	6870	9	
090607	15:06	823	LH08 house	86	2428	house	
090607	15:06	823	JSLH21	87	2336	10	
090607	15:06	823	LH21 monument	88	8350	funeral	
090607	15:06	823	JSUR83	89	5023	8	
090607	15:06	823	UR83 lesson	90	16647	standard	
090607	15:06	823	JSHL22	91	5963	7	
090607	15:06	823	HL22 problem	92	2983	problem	
090607	15:06	823	JSLH47	93	5023	9	
090607	15:06	823	LH47 detergent	94	8990	detergent	
090607	15:06	823	JSUR56	95	4347	10	
090607	15:06	823	UR56 antler	96	2742	nervous	
090607	15:06	823	JSUR80	97	2540	8	
090607	15:06	823	UR80 antique	98	9525	plan	
090607	15:06	823	JSUR11	99	8543	4	
090607	15:06	823	UR11 foundation	100	3510	number	
090607	15:06	823	JSHL11	101	7897	8	
090607	15:06	823	HL11 rock	102	2594	rock	
090607	15:06	823	JSLH16	103	4593	9	
090607	15:06	823	LH16 power	104	2212	power	
090607	15:06	823	JSUR18	105	4471	5	
090607	15:06	823	UR18 relief	106	3408	memory	
090607	15:06	823	JSLH39	107	1547	7	
090607	15:06	823	LH39 reward	108	4134	dry	
090607	15:06	823	JSUR79	109	1512	7	
090607	15:06	823	UR79 beetle	110	4247	fruit	
090607	15:06	823	JSUR102	111	8724	1	
090607	15:06	823	UR102 velocity	112	6938	name	
090607	15:06	823	JSUR101	113	4656	5	
090607	15:06	823	UR101 beard	114	4045	soup	
090607	15:06	823	JSUR72	115	2081	7	
090607	15:06	823	UR72 band	116	3302	band	
090607	15:06	823	JSUR51	117	3556	8	
090607	15:06	823	UR51 cabbage	118	2013	car	
090607	15:06	823	JSHL54	119	7108	10	
090607	15:06	823	HL54 indian	120	3946	indian	
090607	15:06	823	JSUR39	121	8943	8	
090607	15:06	823	UR39 faith	122	2402	faith	
090607	15:06	823	JSUR49	123	2044	8	
090607	15:06	823	UR49 casket	124	1789	money	
090607	15:06	823	JSLH49	125	2534	7	
090607	15:06	823	LH49 kindness	126	4841	me	
090607	15:06	823	JSUR10	127	2175	8	
090607	15:06	823	UR10 tribe	128	2047	tribe	
090607	15:06	823	JSHL06	129	1159	9	
090607	15:06	823	HL06 egg	130	2961	deer	
090607	15:06	823	JSUR71	131	1948	8	
090607	15:06	823	UR71 padding	132	2489	padding	
090607	15:06	823	JSUR25	133	1009	8	
090607	15:06	823	UR25 partner	134	4678	pastry	
090607	15:06	823	JSUR03	135	3399	4	
090607	15:06	823	UR03 vehicle	136	2763	car	
090607	15:06	823	JSHL28	137	3948	5	
090607	15:06	823	HL28 bird	138	3204	bird	
090607	15:06	823	JSUR100	139	660	6	
090607	15:06	823	UR100 comb	140	2793	comb	
090607	15:06	823	JSUR89	141	3209	9	
090607	15:06	823	UR89 crow	142	4300	crow	
090607	15:06	823	JSUR29	143	1447	8	
090607	15:06	823	UR29 patrol	144	3521	patrol	
090607	15:06	823	JSHL38	145	4896	7	
090607	15:06	823	HL38 boat	146	1992	boat	
090607	15:06	823	JSLH33	147	5644	8	
090607	15:06	823	LH33 fable	148	3304	fairy	
090607	15:06	823	JSUR31	149	4892	5	
090607	15:06	823	UR31 diameter	150	2462	number	
090607	15:06	823	JSHL19	151	1344	6	
090607	15:06	823	HL19 car	152	3918	call	
090607	15:06	823	JSLH31	153	1732	5	
090607	15:06	823	LH31 self	154	2220	self	
090607	15:06	823	JSLH13	155	1342	7	
090607	15:06	823	LH13 crease	156	3779	cease	
090607	15:06	823	JSUR37	157	4541	8	
090607	15:06	823	UR37 cloth	158	2574	coat	
090607	15:06	823	JSHL27	159	2796	9	
090607	15:06	823	HL27 rain	160	1739	rain	
090607	15:06	823	JSUR104	161	1518	5	
090607	15:06	823	UR104 aardvark	162	5050	letter	
090607	15:06	823	JSUR38	163	2172	7	
090607	15:06	823	UR38 energy	164	4009	robot	
090607	15:06	823	JSUR90	165	1447	7	
090607	15:06	823	UR90 sailing	166	1966	money	
090607	15:06	823	JSUR57	167	1837	8	
090607	15:06	823	UR57 benefit	168	3282	blue	
090607	15:06	823	JSUR86	169	2543	8	
090607	15:06	823	UR86 boulevard	170	4309	bolder	
090607	15:06	823	JSLH45	171	1295	9	
090607	15:06	823	LH45 intellect	172	3941	intellect	
090607	15:06	823	JSLH26	173	1517	8	
090607	15:06	823	LH26 center	174	2078	center	
090607	15:06	823	JSUR12	175	1212	8	
090607	15:06	823	UR12 unicorn	176	3229	knife	
090607	15:06	823	JSUR108	177	1266	9	
090607	15:06	823	UR108 shield	178	2293	foot	
090607	15:06	823	JSUR99	179	1635	6	
090607	15:06	823	UR99 branch	180	3942	crunchy	
090607	15:06	823	JSHL29	181	1460	8	
090607	15:06	823	HL29 ring	182	2324	ring	
090607	15:06	823	JSHL26	183	3078	2	
090607	15:06	823	HL26 light	184	2239	light	
090607	15:06	823	JSLH28	185	1259	8	
090607	15:06	823	LH28 vagrant	186	2259	poor	
090607	15:06	823	JSHL52	187	924	8	
090607	15:06	823	HL52 sand	188	1875	sand	
090607	15:06	823	JSHL48	189	1046	6	
090607	15:06	823	HL48 airplane	190	1634	swe	
090607	15:06	823	JSUR43	191	1198	7	
090607	15:06	823	UR43 balloon	192	2316	balloon	
090607	15:06	823	JSUR93	193	2386	5	
090607	15:06	823	UR93 catcher	194	3268	castle	
090607	15:06	823	JSHL20	195	2044	4	
090607	15:06	823	HL20 wine	196	2271	wine	
090607	15:06	823	JSHL13	197	1600	8	
090607	15:06	823	HL13 map	198	1740	map	
090607	15:06	823	JSHL12	199	1905	8	
090607	15:06	823	HL12 space	200	2039	space	
090607	15:06	823	JSUR02	201	2605	9	
090607	15:06	823	UR02 comma	202	2712	star	
090607	15:06	823	JSUR48	203	994	6	
090607	15:06	823	UR48 democracy	204	3525	money	
090607	15:06	823	JSUR08	205	1100	6	
090607	15:06	823	UR08 assistant	206	3351	comment	
090607	15:06	823	JSUR84	207	1133	7	
090607	15:06	823	UR84 flag	208	2751	flag	
090607	15:06	823	JSUR26	209	1275	8	
090607	15:06	823	UR26 eternity	210	3441	etat	
090607	15:06	823	JSLH52	211	10444	4	
090607	15:06	823	LH52 bureau	212	3916	burden	
090607	15:06	823	JSUR44	213	1550	4	
090607	15:06	823	UR44 rot	214	4220	diamond	
090607	15:06	823	JSUR16	215	1986	8	
090607	15:06	823	UR16 century	216	7141	rain	
