date	time	subject	trialcode	trialnum	latency	response	
091107	10:55	840	JSPR17	1	32365	5	
091107	10:55	840	PR17 emerald	2	15230	dog	
091107	10:55	840	JSPR27	3	13112	5	
091107	10:55	840	PR27 wheat	4	5788	what	
091107	10:55	840	JSPR07	5	8363	6	
091107	10:55	840	PR07 bog	6	10334	boy	
091107	10:55	840	JSPR23	7	6016	4	
091107	10:55	840	PR23 companion	8	7826	china	
091107	10:55	840	JSPR06	9	10121	7	
091107	10:55	840	PR06 beast	10	15831	bell	
091107	10:55	840	JSPR09	11	10215	5	
091107	10:55	840	PR09 album	12	16187		
091107	10:55	840	JSPR21	13	8015	4	
091107	10:55	840	PR21 innocence	14	18132	ice	
091107	10:55	840	JSPR01	15	8107	6	
091107	10:55	840	PR01 cash	16	7236	nuts	
091107	10:55	840	JSPR11	17	8932	4	
091107	10:55	840	PR11 ounce	18	4431	bounce	
091107	10:55	840	JSPR25	19	4756	4	
091107	10:55	840	PR25 saliva	20	13195	salt	
091107	10:55	840	JSPR30	21	4882	5	
091107	10:55	840	PR30 maiden	22	17749	group	
091107	10:55	840	JSPR03	23	4933	3	
091107	10:55	840	PR03 acre	24	8872	seed	
091107	10:55	840	JSPR13	25	7163	3	
091107	10:55	840	PR13 ambition	26	9856		
091107	10:55	840	JSPR04	27	8104	3	
091107	10:55	840	PR04 diaper	28	16331	ear	
091107	10:55	840	JSPR28	29	12045	4	
091107	10:55	840	PR28 challenge	30	5358	challenge	
091107	10:55	840	JSUR42	1	8116	3	
091107	10:55	840	UR42 sergeant	2	12716	sergeant	
091107	10:55	840	JSUR52	3	6355	3	
091107	10:55	840	UR52 knight	4	3959	knit	
091107	10:55	840	JSLH01	5	6271	4	
091107	10:55	840	LH01 brain	6	2703	brain	
091107	10:55	840	JSHL45	7	10579	5	
091107	10:55	840	HL45 words	8	2722	speak	
091107	10:55	840	JSLH03	9	6070	4	
091107	10:55	840	LH03 yard	10	2149	yard	
091107	10:55	840	JSHL21	11	5804	5	
091107	10:55	840	HL21 empire	12	2347	empire	
091107	10:55	840	JSLH38	13	4897	5	
091107	10:55	840	LH38 paint	14	3267	paint	
091107	10:55	840	JSLH43	15	5207	6	
091107	10:55	840	LH43 noise	16	2293	noise	
091107	10:55	840	JSLH37	17	6701	7	
091107	10:55	840	LH37 pad	18	9048	red	
091107	10:55	840	JSHL07	19	6038	3	
091107	10:55	840	HL07 king	20	1795	king	
091107	10:55	840	JSHL39	21	8164	3	
091107	10:55	840	HL39 book	22	1679	book	
091107	10:55	840	JSLH24	23	16126	3	
091107	10:55	840	LH24 feeling	24	3499	feeling	
091107	10:55	840	JSHL42	25	3769	4	
091107	10:55	840	HL42 pie	26	4855	piece	
091107	10:55	840	JSUR30	27	5913	4	
091107	10:55	840	UR30 lover	28	3322	loaf	
091107	10:55	840	JSUR95	29	5106	5	
091107	10:55	840	UR95 fool	30	6385	dog	
091107	10:55	840	JSLH20	31	4240	5	
091107	10:55	840	LH20 violation	32	7815	victim	
091107	10:55	840	JSUR96	33	6612	4	
091107	10:55	840	UR96 dessert	34	2101	heart	
091107	10:55	840	JSUR66	35	5519	4	
091107	10:55	840	UR66 chief	36	3372	spoon	
091107	10:55	840	JSHL17	37	3190	2	
091107	10:55	840	HL17 soap	38	2301	soap	
091107	10:55	840	JSUR06	39	4236	3	
091107	10:55	840	UR06 cello	40	2229	cell	
091107	10:55	840	JSLH32	41	3403	3	
091107	10:55	840	LH32 capacity	42	7880	cap	
091107	10:55	840	JSUR103	43	5855	4	
091107	10:55	840	UR103 hula	44	2850	laugh	
091107	10:55	840	JSHL23	45	3805	2	
091107	10:55	840	HL23 baby	46	2191	baby	
091107	10:55	840	JSUR63	47	3037	2	
091107	10:55	840	UR63 alley	48	3049	alley	
091107	10:55	840	JSLH11	49	2516	3	
091107	10:55	840	LH11 cancer	50	3685	crab	
091107	10:55	840	JSHL03	51	2926	4	
091107	10:55	840	HL03 cigarette	52	10686	dog	
091107	10:55	840	JSUR28	53	4572	3	
091107	10:55	840	UR28 bang	54	1736	bang	
091107	10:55	840	JSLH04	55	2400	3	
091107	10:55	840	LH04 grade	56	2854	grade	
091107	10:55	840	JSHL01	57	3179	4	
091107	10:55	840	HL01 elephant	58	10188	tooth	
091107	10:55	840	JSLH27	59	3649	3	
091107	10:55	840	LH27 condition	60	2219	condition	
091107	10:55	840	JSLH51	61	2907	4	
091107	10:55	840	LH51 exit	62	1871	exit	
091107	10:55	840	JSLH07	63	4044	3	
091107	10:55	840	LH07 rear	64	1637	rear	
091107	10:55	840	JSHL41	65	4128	3	
091107	10:55	840	HL41 hand	66	1788	hand	
091107	10:55	840	JSUR50	67	5247	3	
091107	10:55	840	UR50 crane	68	2674	ran	
091107	10:55	840	JSUR76	69	3757	3	
091107	10:55	840	UR76 dignity	70	5052	dignity	
091107	10:55	840	JSUR69	71	4975	4	
091107	10:55	840	UR69 flashlight	72	4195	light	
091107	10:55	840	JSUR85	73	7416	3	
091107	10:55	840	UR85 stroke	74	2125	stroke	
091107	10:55	840	JSHL47	75	5110	4	
091107	10:55	840	HL47 horse	76	2221	horse	
091107	10:55	840	JSHL49	77	4272	3	
091107	10:55	840	HL49 spice	78	2404	spice	
091107	10:55	840	JSUR22	79	3554	4	
091107	10:55	840	UR22 thesaurus	80	2906	hit	
091107	10:55	840	JSLH25	81	3552	5	
091107	10:55	840	LH25 track	82	2184	track	
091107	10:55	840	JSUR82	83	3173	5	
091107	10:55	840	UR82 campus	84	2864	camp	
091107	10:55	840	JSLH02	85	4900	4	
091107	10:55	840	LH02 harm	86	1356	harm	
091107	10:55	840	JSLH14	87	4994	4	
091107	10:55	840	LH14 note	88	1560	note	
091107	10:55	840	JSUR70	89	5431	5	
091107	10:55	840	UR70 pajamas	90	3450	pass	
091107	10:55	840	JSHL31	91	4906	4	
091107	10:55	840	HL31 war	92	1322	war	
091107	10:55	840	JSLH50	93	5275	4	
091107	10:55	840	LH50 measure	94	4702	dog	
091107	10:55	840	JSUR60	95	5249	5	
091107	10:55	840	UR60 plaque	96	3490	place	
091107	10:55	840	JSUR68	97	3479	4	
091107	10:55	840	UR68 fatigue	98	10468	faucet	
091107	10:55	840	JSUR20	99	3483	5	
091107	10:55	840	UR20 climax	100	2308	climax	
091107	10:55	840	JSHL09	101	4076	4	
091107	10:55	840	HL09 chalk	102	2297	hall	
091107	10:55	840	JSLH09	103	3782	4	
091107	10:55	840	LH09 piece	104	2015	piece	
091107	10:55	840	JSUR27	105	4068	5	
091107	10:55	840	UR27 consequence	106	4380	truth	
091107	10:55	840	JSLH30	107	2431	5	
091107	10:55	840	LH30 assignment	108	3280	assignment	
091107	10:55	840	JSUR67	109	8182	2	
091107	10:55	840	UR67 producer	110	4448	producer	
091107	10:55	840	JSUR13	111	3633	5	
091107	10:55	840	UR13 almanac	112	4377	dog	
091107	10:55	840	JSUR107	113	5354	5	
091107	10:55	840	UR107 cocaine	114	3705	spider	
091107	10:55	840	JSUR65	115	3424	6	
091107	10:55	840	UR65 checkers	116	3208	cheese	
091107	10:55	840	JSUR59	117	3782	7	
091107	10:55	840	UR59 copper	118	3839	copy	
091107	10:55	840	JSHL53	119	3141	4	
091107	10:55	840	HL53 fish	120	1347	fish	
091107	10:55	840	JSUR47	121	4224	4	
091107	10:55	840	UR47 chimpanzee	122	4078	house	
091107	10:55	840	JSUR58	123	3607	3	
091107	10:55	840	UR58 answer	124	4597	answer	
091107	10:55	840	JSLH53	125	6303	4	
091107	10:55	840	LH53 core	126	6012	core	
091107	10:55	840	JSUR105	127	4546	2	
091107	10:55	840	UR105 curtain	128	3381	curtain	
091107	10:55	840	JSHL05	129	3438	3	
091107	10:55	840	HL05 mountain	130	4303	mountain	
091107	10:55	840	JSUR64	131	13540	2	
091107	10:55	840	UR64 fist	132	3522	first	
091107	10:55	840	JSUR32	133	4157	4	
091107	10:55	840	UR32 navigator	134	4754	night	
091107	10:55	840	JSUR04	135	2661	4	
091107	10:55	840	UR04 marsh	136	2004	marsh	
091107	10:55	840	JSHL34	137	3910	4	
091107	10:55	840	HL34 hunger	138	7664	humor	
091107	10:55	840	JSUR106	139	4032	4	
091107	10:55	840	UR106 eagle	140	1490	eagle	
091107	10:55	840	JSUR77	141	2817	5	
091107	10:55	840	UR77 uncle	142	2863	uncle	
091107	10:55	840	JSUR35	143	4060	4	
091107	10:55	840	UR35 cause	144	3898	car	
091107	10:55	840	JSHL43	145	5174	4	
091107	10:55	840	HL43 money	146	1551	money	
091107	10:55	840	JSLH23	147	2990	5	
091107	10:55	840	LH23 possibility	148	2963	possibility	
091107	10:55	840	JSUR36	149	4559	4	
091107	10:55	840	UR36 denim	150	1952	denim	
091107	10:55	840	JSHL24	151	3856	5	
091107	10:55	840	HL24 eye	152	1436	eye	
091107	10:55	840	JSLH22	153	4661	5	
091107	10:55	840	LH22 crowd	154	2009	crowd	
091107	10:55	840	JSLH05	155	4402	4	
091107	10:55	840	LH05 chain	156	2552	chain	
091107	10:55	840	JSUR45	157	4118	5	
091107	10:55	840	UR45 bridge	158	3105	bridge	
091107	10:55	840	JSHL33	159	2877	4	
091107	10:55	840	HL33 joke	160	1217	joke	
091107	10:55	840	JSUR14	161	3269	4	
091107	10:55	840	UR14 fudge	162	3840	fudge	
091107	10:55	840	JSUR46	163	6502	5	
091107	10:55	840	UR46 content	164	2031	content	
091107	10:55	840	JSUR78	165	3692	5	
091107	10:55	840	UR78 blender	166	4378	blazer	
091107	10:55	840	JSUR62	167	2197	5	
091107	10:55	840	UR62 chemistry	168	2857	chemistry	
091107	10:55	840	JSUR75	169	5815	3	
091107	10:55	840	UR75 awe	170	1841	awe	
091107	10:55	840	JSLH46	171	5437	1	
091107	10:55	840	LH46 submarine	172	3487	submarine	
091107	10:55	840	JSLH17	173	4818	3	
091107	10:55	840	LH17 life	174	1230	life	
091107	10:55	840	JSUR21	175	4008	4	
091107	10:55	840	UR21 ore	176	3156	ore	
091107	10:55	840	JSUR17	177	2256	5	
091107	10:55	840	UR17 trance	178	2966	trance	
091107	10:55	840	JSUR98	179	3159	1	
091107	10:55	840	UR98 latch	180	1813	last	
091107	10:55	840	JSHL36	181	2241	1	
091107	10:55	840	HL36 football	182	1975	football	
091107	10:55	840	JSHL32	183	2347	2	
091107	10:55	840	HL32 television	184	2541	television	
091107	10:55	840	JSLH19	185	2972	4	
091107	10:55	840	LH19 snob	186	5637	snot	
091107	10:55	840	JSHL51	187	4424	4	
091107	10:55	840	HL51 color	188	1692	color	
091107	10:55	840	JSHL50	189	9909	4	
091107	10:55	840	HL50 doctor	190	2839	doctor	
091107	10:55	840	JSUR53	191	3683	4	
091107	10:55	840	UR53 hell	192	2894	hell	
091107	10:55	840	JSUR87	193	4231	5	
091107	10:55	840	UR87 duty	194	2361	dusty	
091107	10:55	840	JSHL25	195	3615	4	
091107	10:55	840	HL25 cut	196	1740	cut	
091107	10:55	840	JSHL14	197	4860	4	
091107	10:55	840	HL14 milk	198	1607	milk	
091107	10:55	840	JSHL10	199	4669	3	
091107	10:55	840	HL10 cow	200	1645	cow	
091107	10:55	840	JSUR01	201	3027	5	
091107	10:55	840	UR01 file	202	1404	file	
091107	10:55	840	JSUR55	203	2638	5	
091107	10:55	840	UR55 bargain	204	3115	bargain	
091107	10:55	840	JSUR07	205	3165	4	
091107	10:55	840	UR07 gathering	206	2409	gathering	
091107	10:55	840	JSUR74	207	4851	3	
091107	10:55	840	UR74 suitcase	208	2895	suitcase	
091107	10:55	840	JSUR34	209	3339	4	
091107	10:55	840	UR34 charity	210	2641	charity	
091107	10:55	840	JSLH54	211	3505	4	
091107	10:55	840	LH54 limit	212	2086	limit	
091107	10:55	840	JSUR54	213	9396	4	
091107	10:55	840	UR54 steam	214	1527	steam	
091107	10:55	840	JSUR24	215	4670	2	
091107	10:55	840	UR24 kid	216	1140	kid	
091107	10:55	840	JAPR26	1	12763	1	
091107	10:55	840	PR26 colonel	2	4634	smell	
091107	10:55	840	JAPR24	3	7345	4	
091107	10:55	840	PR24 pest	4	6882	press	
091107	10:55	840	JAPR08	5	4496	7	
091107	10:55	840	PR08 beef	6	2876	beef	
091107	10:55	840	JAPR05	7	3968	9	
091107	10:55	840	PR05 calf	8	4080	cat	
091107	10:55	840	JAPR14	9	3901	5	
091107	10:55	840	PR14 religion	10	2396	religion	
091107	10:55	840	JAPR19	11	4924	7	
091107	10:55	840	PR19 void	12	1425	void	
091107	10:55	840	JAPR12	13	3946	7	
091107	10:55	840	PR12 royalty	14	2550	royalty	
091107	10:55	840	JAPR02	15	6442	5	
091107	10:55	840	PR02 wrinkle	16	3898	week	
091107	10:55	840	JAPR10	17	7686	4	
091107	10:55	840	PR10 camel	18	2071	camel	
091107	10:55	840	JAPR15	19	4996	2	
091107	10:55	840	PR15 depletion	20	4313	deletion	
091107	10:55	840	JAPR20	21	4553	3	
091107	10:55	840	PR20 advertisement	22	3363	advertisement	
091107	10:55	840	JAPR29	23	7040	4	
091107	10:55	840	PR29 mermaid	24	13001	asteroid	
091107	10:55	840	JAPR16	25	5516	3	
091107	10:55	840	PR16 compulsion	26	2718	confusion	
091107	10:55	840	JAPR22	27	4393	4	
091107	10:55	840	PR22 ass	28	2807	ask	
091107	10:55	840	JAUR43	1	8427	3	
091107	10:55	840	UR43 balloon	2	1883	balloon	
091107	10:55	840	JAUR102	3	7989	3	
091107	10:55	840	UR102 velocity	4	2433	velocity	
091107	10:55	840	JAHL08	5	4039	4	
091107	10:55	840	HL08 math	6	1339	math	
091107	10:55	840	JALH13	7	4399	3	
091107	10:55	840	LH13 crease	8	2664	crease	
091107	10:55	840	JALH08	9	4165	6	
091107	10:55	840	LH08 house	10	1348	house	
091107	10:55	840	JAUR71	11	3863	7	
091107	10:55	840	UR71 padding	12	1743	padding	
091107	10:55	840	JAUR25	13	4172	8	
091107	10:55	840	UR25 partner	14	3539	partner	
091107	10:55	840	JALH47	15	4788	5	
091107	10:55	840	LH47 detergent	16	3650	detergent	
091107	10:55	840	JALH36	17	5180	3	
091107	10:55	840	LH36 gang	18	1669	gang	
091107	10:55	840	JAHL15	19	6287	7	
091107	10:55	840	HL15 bomb	20	2057	bomb	
091107	10:55	840	JAUR84	21	8950	6	
091107	10:55	840	UR84 flag	22	1426	flag	
091107	10:55	840	JAHL29	23	8323	5	
091107	10:55	840	HL29 ring	24	1613	ring	
091107	10:55	840	JALH29	25	6840	4	
091107	10:55	840	LH29 closet	26	1855	closet	
091107	10:55	840	JALH52	27	3891	8	
091107	10:55	840	LH52 bureau	28	10995	boo	
091107	10:55	840	JALH48	29	7697	4	
091107	10:55	840	LH48 outcome	30	2483	outcome	
091107	10:55	840	JAUR29	31	4984	4	
091107	10:55	840	UR29 patrol	32	2896	control	
091107	10:55	840	JALH28	33	5599	5	
091107	10:55	840	LH28 vagrant	34	3006	vagrant	
091107	10:55	840	JAHL52	35	5810	3	
091107	10:55	840	HL52 sand	36	1270	sand	
091107	10:55	840	JAHL44	37	5713	6	
091107	10:55	840	HL44 baseball	38	1888	baseball	
091107	10:55	840	JAUR37	39	4558	3	
091107	10:55	840	UR37 cloth	40	2744	cloth	
091107	10:55	840	JAUR81	41	4111	5	
091107	10:55	840	UR81 acid	42	8407	alive	
091107	10:55	840	JAUR88	43	6341	4	
091107	10:55	840	UR88 circus	44	2953	circus	
091107	10:55	840	JALH34	45	4012	8	
091107	10:55	840	LH34 panel	46	1687	panel	
091107	10:55	840	JAHL54	47	6595	5	
091107	10:55	840	HL54 indian	48	1617	indian	
091107	10:55	840	JAUR48	49	3366	2	
091107	10:55	840	UR48 democracy	50	3211	democracy	
091107	10:55	840	JAUR40	51	3908	8	
091107	10:55	840	UR40 dancer	52	3222	dance	
091107	10:55	840	JAHL38	53	5021	7	
091107	10:55	840	HL38 boat	54	1337	boat	
091107	10:55	840	JALH18	55	3231	8	
091107	10:55	840	LH18 edge	56	1588	edge	
091107	10:55	840	JAUR89	57	4390	4	
091107	10:55	840	UR89 crow	58	2268	cross	
091107	10:55	840	JAUR18	59	4449	4	
091107	10:55	840	UR18 relief	60	1471	relief	
091107	10:55	840	JAUR80	61	5934	4	
091107	10:55	840	UR80 antique	62	2978	antique	
091107	10:55	840	JAUR15	63	3577	8	
091107	10:55	840	UR15 compass	64	2235	compass	
091107	10:55	840	JAUR08	65	4658	5	
091107	10:55	840	UR08 assistant	66	4049	assistant	
091107	10:55	840	JAUR94	67	4794	5	
091107	10:55	840	UR94 bristle	68	4540	bag	
091107	10:55	840	JAUR61	69	2922	4	
091107	10:55	840	UR61 suicide	70	2664	enter	
091107	10:55	840	JAUR05	71	3925	8	
091107	10:55	840	UR05 lease	72	2682	lease	
091107	10:55	840	JAHL28	73	3814	2	
091107	10:55	840	HL28 bird	74	1579	bird	
091107	10:55	840	JAUR73	75	4674	4	
091107	10:55	840	UR73 kite	76	2544	kite	
091107	10:55	840	JAUR79	77	4910	4	
091107	10:55	840	UR79 beetle	78	2918	beet	
091107	10:55	840	JAUR31	79	6883	4	
091107	10:55	840	UR31 diameter	80	7443	dog	
091107	10:55	840	JAUR26	81	3900	4	
091107	10:55	840	UR26 eternity	82	2227	eternity	
091107	10:55	840	JALH21	83	3619	7	
091107	10:55	840	LH21 monument	84	2167	monument	
091107	10:55	840	JAHL48	85	5051	2	
091107	10:55	840	HL48 airplane	86	1901	airplane	
091107	10:55	840	JALH10	87	5069	7	
091107	10:55	840	LH10 care	88	1831	care	
091107	10:55	840	JALH31	89	5758	4	
091107	10:55	840	LH31 self	90	1448	self	
091107	10:55	840	JAUR38	91	2772	4	
091107	10:55	840	UR38 energy	92	2577	energy	
091107	10:55	840	JAUR86	93	5045	6	
091107	10:55	840	UR86 boulevard	94	2758	boulevard	
091107	10:55	840	JAUR90	95	5398	5	
091107	10:55	840	UR90 sailing	96	6500	sailing	
091107	10:55	840	JAHL30	97	3955	8	
091107	10:55	840	HL30 air	98	1657	air	
091107	10:55	840	JAUR57	99	3587	5	
091107	10:55	840	UR57 benefit	100	3052	eat	
091107	10:55	840	JALH12	101	5361	8	
091107	10:55	840	LH12 addition	102	3427	addition	
091107	10:55	840	JAHL04	103	6030	9	
091107	10:55	840	HL04 beer	104	1606	beer	
091107	10:55	840	JAUR11	105	7942	5	
091107	10:55	840	UR11 foundation	106	4951	foundation	
091107	10:55	840	JALH33	107	4261	8	
091107	10:55	840	LH33 fable	108	6148	table	
091107	10:55	840	JAHL11	109	3279	6	
091107	10:55	840	HL11 rock	110	1897	rock	
091107	10:55	840	JALH06	111	4259	6	
091107	10:55	840	LH06 element	112	2405	element	
091107	10:55	840	JAHL37	113	3645	3	
091107	10:55	840	HL37 thread	114	2046	thread	
091107	10:55	840	JALH44	115	3974	4	
091107	10:55	840	LH44 vessel	116	1848	vessel	
091107	10:55	840	JALH39	117	6761	5	
091107	10:55	840	LH39 reward	118	2094	reward	
091107	10:55	840	JALH49	119	5619	5	
091107	10:55	840	LH49 kindness	120	2773	kindness	
091107	10:55	840	JAUR39	121	4265	4	
091107	10:55	840	UR39 faith	122	1534	faith	
091107	10:55	840	JAUR33	123	6467	6	
091107	10:55	840	UR33 horror	124	2477	hour	
091107	10:55	840	JAUR02	125	3711	7	
091107	10:55	840	UR02 comma	126	6385	coma	
091107	10:55	840	JAUR93	127	3686	4	
091107	10:55	840	UR93 catcher	128	5766	catch	
091107	10:55	840	JAHL19	129	4014	3	
091107	10:55	840	HL19 car	130	1417	car	
091107	10:55	840	JAUR49	131	4382	7	
091107	10:55	840	UR49 casket	132	2509	basket	
091107	10:55	840	JAHL35	133	2988	4	
091107	10:55	840	HL35 cake	134	1263	cake	
091107	10:55	840	JAUR44	135	3872	5	
091107	10:55	840	UR44 rot	136	2749	rock	
091107	10:55	840	JAUR91	137	3802	4	
091107	10:55	840	UR91 anteater	138	2219	eater	
091107	10:55	840	JAHL46	139	7275	3	
091107	10:55	840	HL46 butter	140	1964	butter	
091107	10:55	840	JAUR09	141	5644	6	
091107	10:55	840	UR09 education	142	2652	education	
091107	10:55	840	JAUR83	143	4834	4	
091107	10:55	840	UR83 lesson	144	1470	lesson	
091107	10:55	840	JAHL18	145	4434	8	
091107	10:55	840	HL18 paper	146	1435	paper	
091107	10:55	840	JALH16	147	3987	4	
091107	10:55	840	LH16 power	148	1402	power	
091107	10:55	840	JAHL06	149	5080	2	
091107	10:55	840	HL06 egg	150	1487	egg	
091107	10:55	840	JAHL20	151	4140	4	
091107	10:55	840	HL20 wine	152	1203	wine	
091107	10:55	840	JAHL26	153	8375	3	
091107	10:55	840	HL26 light	154	3587	knife	
091107	10:55	840	JALH42	155	3603	5	
091107	10:55	840	LH42 thought	156	1771	thought	
091107	10:55	840	JAUR41	157	6211	4	
091107	10:55	840	UR41 chime	158	2802	chime	
091107	10:55	840	JAPR18	159	4340	4	
091107	10:55	840	PR18 clorox	160	3448	shoe	
091107	10:55	840	JALH35	161	4804	6	
091107	10:55	840	LH35 shelter	162	1718	shelter	
091107	10:55	840	JAUR16	163	5344	5	
091107	10:55	840	UR16 century	164	5712	money	
091107	10:55	840	JAUR108	165	3476	8	
091107	10:55	840	UR108 shield	166	1477	shield	
091107	10:55	840	JAHL12	167	4730	6	
091107	10:55	840	HL12 space	168	1658	space	
091107	10:55	840	JAUR23	169	4522	7	
091107	10:55	840	UR23 abundance	170	11848	absence	
091107	10:55	840	JAUR104	171	6056	3	
091107	10:55	840	UR104 aardvark	172	3358	aardvark	
091107	10:55	840	JAUR56	173	4977	3	
091107	10:55	840	UR56 antler	174	4218	air	
091107	10:55	840	JAHL16	175	4145	4	
091107	10:55	840	HL16 broom	176	1412	broom	
091107	10:55	840	JAHL40	177	5496	4	
091107	10:55	840	HL40 temperature	178	2282	temperature	
091107	10:55	840	JAUR101	179	5243	3	
091107	10:55	840	UR101 beard	180	13065	bark	
091107	10:55	840	JALH45	181	3555	4	
091107	10:55	840	LH45 intellect	182	2352	intellect	
091107	10:55	840	JAUR92	183	4086	7	
091107	10:55	840	UR92 dart	184	4038	dart	
091107	10:55	840	JAUR19	185	7066	3	
091107	10:55	840	UR19 bison	186	3546	bison	
091107	10:55	840	JAUR99	187	5625	4	
091107	10:55	840	UR99 branch	188	2264	branch	
091107	10:55	840	JAUR10	189	4932	3	
091107	10:55	840	UR10 tribe	190	1641	tribe	
091107	10:55	840	JAUR72	191	5806	5	
091107	10:55	840	UR72 band	192	2126	band	
091107	10:55	840	JAUR100	193	4167	4	
091107	10:55	840	UR100 comb	194	1722	comb	
091107	10:55	840	JALH26	195	5589	6	
091107	10:55	840	LH26 center	196	1748	center	
091107	10:55	840	JAUR03	197	4357	5	
091107	10:55	840	UR03 vehicle	198	1861	vehicle	
091107	10:55	840	JAHL22	199	9017	5	
091107	10:55	840	HL22 problem	200	1729	problem	
091107	10:55	840	JALH15	201	4546	6	
091107	10:55	840	LH15 blessing	202	3411	blessing	
091107	10:55	840	JAHL27	203	5298	6	
091107	10:55	840	HL27 rain	204	1098	rain	
091107	10:55	840	JAHL02	205	5182	6	
091107	10:55	840	HL02 flower	206	1308	flower	
091107	10:55	840	JALH41	207	9196	5	
091107	10:55	840	LH41 girl	208	1346	girl	
091107	10:55	840	JAHL13	209	4894	8	
091107	10:55	840	HL13 map	210	967	map	
091107	10:55	840	JAUR97	211	5542	7	
091107	10:55	840	UR97 banner	212	3796	banner	
091107	10:55	840	JALH40	213	3766	5	
091107	10:55	840	LH40 field	214	1354	field	
091107	10:55	840	JAUR51	215	3685	5	
091107	10:55	840	UR51 cabbage	216	4731	car	
091107	10:55	840	JAUR12	217	4426	9	
091107	10:55	840	UR12 unicorn	218	4155	fork	
