date	time	subject	trialcode	trialnum	latency	response
060209	14:47	701	JSPR17	1	50438	7
060209	14:47	701	PR17 emerald	2	34465	either
060209	14:47	701	JSPR27	3	15696	6
060209	14:47	701	PR27 wheat	4	16188	what
060209	14:47	701	JSPR07	5	20032	8
060209	14:47	701	PR07 bog	6	3874	dog
060209	14:47	701	JSPR23	7	9630	9
060209	14:47	701	PR23 companion	8	6462	yeah
060209	14:47	701	JSPR06	9	10085	3
060209	14:47	701	PR06 beast	10	6465	beat
060209	14:47	701	JSPR09	11	15430	8
060209	14:47	701	PR09 album	12	8045	alarm
060209	14:47	701	JSPR21	13	11604	4
060209	14:47	701	PR21 innocence	14	12995	innocence
060209	14:47	701	JSPR01	15	10549	5
060209	14:47	701	PR01 cash	16	3103	cash
060209	14:47	701	JSPR11	17	15241	6
060209	14:47	701	PR11 ounce	18	5113	bounce
060209	14:47	701	JSPR25	19	10739	8
060209	14:47	701	PR25 saliva	20	4053	salt
060209	14:47	701	JSPR30	21	7450	6
060209	14:47	701	PR30 maiden	22	5983	made
060209	14:47	701	JSPR03	23	5959	8
060209	14:47	701	PR03 acre	24	6695	acre
060209	14:47	701	JSPR13	25	12755	4
060209	14:47	701	PR13 ambition	26	7845	ambition
060209	14:47	701	JSPR04	27	24115	7
060209	14:47	701	PR04 diaper	28	19378	diaper
060209	14:47	701	JSPR28	29	14343	8
060209	14:47	701	PR28 challenge	30	4714	challenge
060209	14:47	701	JSUR42	1	5280	8
060209	14:47	701	UR42 sergeant	2	5624	sergeant
060209	14:47	701	JSUR52	3	19905	6
060209	14:47	701	UR52 knight	4	3543	knight
060209	14:47	701	JSLH01	5	10817	8
060209	14:47	701	LH01 brain	6	3119	brain
060209	14:47	701	JSHL45	7	11993	9
060209	14:47	701	HL45 words	8	3946	word
060209	14:47	701	JSLH03	9	20323	7
060209	14:47	701	LH03 yard	10	3145	yard
060209	14:47	701	JSHL21	11	21330	8
060209	14:47	701	HL21 empire	12	4480	empire
060209	14:47	701	JSLH38	13	10164	8
060209	14:47	701	LH38 paint	14	4860	paint
060209	14:47	701	JSLH43	15	11297	7
060209	14:47	701	LH43 noise	16	5581	noise
060209	14:47	701	JSLH37	17	28869	7
060209	14:47	701	LH37 pad	18	5512	pad
060209	14:47	701	JSHL07	19	16083	8
060209	14:47	701	HL07 king	20	4753	king
060209	14:47	701	JSHL39	21	16634	5
060209	14:47	701	HL39 book	22	3938	book
060209	14:47	701	JSLH24	23	19884	4
060209	14:47	701	LH24 feeling	24	4051	feeling
060209	14:47	701	JSHL42	25	21463	8
060209	14:47	701	HL42 pie	26	3184	pie
060209	14:47	701	JSUR30	27	14295	7
060209	14:47	701	UR30 lover	28	7340	love
060209	14:47	701	JSUR95	29	8639	8
060209	14:47	701	UR95 fool	30	5828	fool
060209	14:47	701	JSLH20	31	25586	9
060209	14:47	701	LH20 violation	32	15230	violation
060209	14:47	701	JSUR96	33	2858	9
060209	14:47	701	UR96 dessert	34	10534	dessert
060209	14:47	701	JSUR66	35	17371	7
060209	14:47	701	UR66 chief	36	14444	chief
060209	14:47	701	JSHL17	37	8375	6
060209	14:47	701	HL17 soap	38	3355	kbjhjh
060209	14:47	701	JSUR06	39	3118	1
060209	14:47	701	UR06 cello	40	6126	cell
060209	14:47	701	JSLH32	41	6561	6
060209	14:47	701	LH32 capacity	42	8153	capacity
060209	14:47	701	JSUR103	43	9419	7
060209	14:47	701	UR103 hula	44	7053	hume
060209	14:47	701	JSHL23	45	3309	7
060209	14:47	701	HL23 baby	46	9445	baby
060209	14:47	701	JSUR63	47	3268	7
060209	14:47	701	UR63 alley	48	5262	alley
060209	14:47	701	JSLH11	49	14404	6
060209	14:47	701	LH11 cancer	50	5012	cancer
060209	14:47	701	JSHL03	51	11732	7
060209	14:47	701	HL03 cigarette	52	5934	cigarette
060209	14:47	701	JSUR28	53	5848	9
060209	14:47	701	UR28 bang	54	6588	danger
060209	14:47	701	JSLH04	55	6173	8
060209	14:47	701	LH04 grade	56	4500	grace
060209	14:47	701	JSHL01	57	11255	6
060209	14:47	701	HL01 elephant	58	4932	elephant
060209	14:47	701	JSLH27	59	9990	5
060209	14:47	701	LH27 condition	60	5174	condition
060209	14:47	701	JSLH51	61	5311	6
060209	14:47	701	LH51 exit	62	4440	exit
060209	14:47	701	JSLH07	63	14862	6
060209	14:47	701	LH07 rear	64	4140	rear
060209	14:47	701	JSHL41	65	10398	4
060209	14:47	701	HL41 hand	66	3373	hand
060209	14:47	701	JSUR50	67	10733	6
060209	14:47	701	UR50 crane	68	5183	crane
060209	14:47	701	JSUR76	69	7255	6
060209	14:47	701	UR76 dignity	70	11132	dignity
060209	14:47	701	JSUR69	71	14922	6
060209	14:47	701	UR69 flashlight	72	8262	flashlight
060209	14:47	701	JSUR85	73	7188	5
060209	14:47	701	UR85 stroke	74	4083	stroke
060209	14:47	701	JSHL47	75	15878	7
060209	14:47	701	HL47 horse	76	5996	dust
060209	14:47	701	JSHL49	77	8612	8
060209	14:47	701	HL49 spice	78	4426	spice
060209	14:47	701	JSUR22	79	18593	5
060209	14:47	701	UR22 thesaurus	80	12187	thesaurus
060209	14:47	701	JSLH25	81	11437	9
060209	14:47	701	LH25 track	82	4531	math
060209	14:47	701	JSUR82	83	21349	6
060209	14:47	701	UR82 campus	84	6050	campus
060209	14:47	701	JSLH02	85	15031	6
060209	14:47	701	LH02 harm	86	6608	harm
060209	14:47	701	JSLH14	87	19362	4
060209	14:47	701	LH14 note	88	3694	note
060209	14:47	701	JSUR70	89	6321	6
060209	14:47	701	UR70 pajamas	90	8178	pajamas
060209	14:47	701	JSHL31	91	5251	7
060209	14:47	701	HL31 war	92	3615	war
060209	14:47	701	JSLH50	93	12437	8
060209	14:47	701	LH50 measure	94	8803	measure
060209	14:47	701	JSUR60	95	10780	5
060209	14:47	701	UR60 plaque	96	13196	plateau
060209	14:47	701	JSUR68	97	14390	6
060209	14:47	701	UR68 fatigue	98	7751	knob
060209	14:47	701	JSUR20	99	18377	6
060209	14:47	701	UR20 climax	100	7036	climb
060209	14:47	701	JSHL09	101	4667	6
060209	14:47	701	HL09 chalk	102	7837	chalk
060209	14:47	701	JSLH09	103	6620	4
060209	14:47	701	LH09 piece	104	4241	piece
060209	14:47	701	JSUR27	105	7951	7
060209	14:47	701	UR27 consequence	106	9695	consequence
060209	14:47	701	JSLH30	107	8725	8
060209	14:47	701	LH30 assignment	108	4774	assignment
060209	14:47	701	JSUR67	109	16431	2
060209	14:47	701	UR67 producer	110	5183	producer
060209	14:47	701	JSUR13	111	12487	6
060209	14:47	701	UR13 almanac	112	10803	almanac
060209	14:47	701	JSUR107	113	7901	7
060209	14:47	701	UR107 cocaine	114	7487	cocaine
060209	14:47	701	JSUR65	115	9084	8
060209	14:47	701	UR65 checkers	116	4687	checkers
060209	14:47	701	JSUR59	117	33451	3
060209	14:47	701	UR59 copper	118	4968	copper
060209	14:47	701	JSHL53	119	6809	6
060209	14:47	701	HL53 fish	120	3335	fish
060209	14:47	701	JSUR47	121	12376	6
060209	14:47	701	UR47 chimpanzee	122	8217	chimpanzee
060209	14:47	701	JSUR58	123	14105	5
060209	14:47	701	UR58 answer	124	4229	answer
060209	14:47	701	JSLH53	125	13076	4
060209	14:47	701	LH53 core	126	4633	core
060209	14:47	701	JSUR105	127	21783	5
060209	14:47	701	UR105 curtain	128	5363	curtain
060209	14:47	701	JSHL05	129	35955	5
060209	14:47	701	HL05 mountain	130	4700	mountain
060209	14:47	701	JSUR64	131	13079	3
060209	14:47	701	UR64 fist	132	4540	first
060209	14:47	701	JSUR32	133	21214	3
060209	14:47	701	UR32 navigator	134	5376	navigator
060209	14:47	701	JSUR04	135	10881	6
060209	14:47	701	UR04 marsh	136	4058	marsh
060209	14:47	701	JSHL34	137	19024	6
060209	14:47	701	HL34 hunger	138	4570	hunger
060209	14:47	701	JSUR106	139	16218	3
060209	14:47	701	UR106 eagle	140	4099	eagle
060209	14:47	701	JSUR77	141	38693	7
060209	14:47	701	UR77 uncle	142	3331	uncle
060209	14:47	701	JSUR35	143	6356	4
060209	14:47	701	UR35 cause	144	3204	cause
060209	14:47	701	JSHL43	145	13802	4
060209	14:47	701	HL43 money	146	3363	money
060209	14:47	701	JSLH23	147	12228	5
060209	14:47	701	LH23 possibility	148	6475	possibility
060209	14:47	701	JSUR36	149	18400	6
060209	14:47	701	UR36 denim	150	11042	denim
060209	14:47	701	JSHL24	151	8050	4
060209	14:47	701	HL24 eye	152	3262	eye
060209	14:47	701	JSLH22	153	14787	4
060209	14:47	701	LH22 crowd	154	4228	crowd
060209	14:47	701	JSLH05	155	8163	6
060209	14:47	701	LH05 chain	156	3835	chain
060209	14:47	701	JSUR45	157	19528	5
060209	14:47	701	UR45 bridge	158	3854	bridge
060209	14:47	701	JSHL33	159	13034	4
060209	14:47	701	HL33 joke	160	3057	joke
060209	14:47	701	JSUR14	161	7550	6
060209	14:47	701	UR14 fudge	162	11982	fudge
060209	14:47	701	JSUR46	163	8984	6
060209	14:47	701	UR46 content	164	3488	content
060209	14:47	701	JSUR78	165	8043	7
060209	14:47	701	UR78 blender	166	4056	blender
060209	14:47	701	JSUR62	167	7917	6
060209	14:47	701	UR62 chemistry	168	5327	chemistry
060209	14:47	701	JSUR75	169	8290	3
060209	14:47	701	UR75 awe	170	4373	awe
060209	14:47	701	JSLH46	171	20669	8
060209	14:47	701	LH46 submarine	172	5045	submarine
060209	14:47	701	JSLH17	173	5923	6
060209	14:47	701	LH17 life	174	3108	life
060209	14:47	701	JSUR21	175	4031	5
060209	14:47	701	UR21 ore	176	4747	sore
060209	14:47	701	JSUR17	177	8676	4
060209	14:47	701	UR17 trance	178	7777	trance
060209	14:47	701	JSUR98	179	13444	7
060209	14:47	701	UR98 latch	180	5451	launch
060209	14:47	701	JSHL36	181	12120	3
060209	14:47	701	HL36 football	182	4595	football
060209	14:47	701	JSHL32	183	6131	6
060209	14:47	701	HL32 television	184	7753	television
060209	14:47	701	JSLH19	185	6206	6
060209	14:47	701	LH19 snob	186	3892	snob
060209	14:47	701	JSHL51	187	6687	6
060209	14:47	701	HL51 color	188	3618	color
060209	14:47	701	JSHL50	189	10328	7
060209	14:47	701	HL50 doctor	190	4459	doctor
060209	14:47	701	JSUR53	191	10368	6
060209	14:47	701	UR53 hell	192	8288	hell
060209	14:47	701	JSUR87	193	15005	7
060209	14:47	701	UR87 duty	194	3990	duty
060209	14:47	701	JSHL25	195	11518	5
060209	14:47	701	HL25 cut	196	2881	cut
060209	14:47	701	JSHL14	197	12052	6
060209	14:47	701	HL14 milk	198	2930	milk
060209	14:47	701	JSHL10	199	4580	6
060209	14:47	701	HL10 cow	200	4154	cow
060209	14:47	701	JSUR01	201	4940	5
060209	14:47	701	UR01 file	202	2868	file
060209	14:47	701	JSUR55	203	18567	8
060209	14:47	701	UR55 bargain	204	9154	bargain
060209	14:47	701	JSUR07	205	8141	7
060209	14:47	701	UR07 gathering	206	7062	gathering
060209	14:47	701	JSUR74	207	11828	6
060209	14:47	701	UR74 suitcase	208	4891	suitcase
060209	14:47	701	JSUR34	209	12431	7
060209	14:47	701	UR34 charity	210	5421	charity
060209	14:47	701	JSLH54	211	7548	6
060209	14:47	701	LH54 limit	212	5312	limit
060209	14:47	701	JSUR54	213	15013	4
060209	14:47	701	UR54 steam	214	4989	stream
060209	14:47	701	JSUR24	215	9581	6
060209	14:47	701	UR24 kid	216	3788	kid
060209	14:47	701	JAPR26	1	32620	4
060209	14:47	701	PR26 colonel	2	11386	colonel
060209	14:47	701	JAPR24	3	15420	3
060209	14:47	701	PR24 pest	4	2949	pest
060209	14:47	701	JAPR08	5	11493	9
060209	14:47	701	PR08 beef	6	3226	beef
060209	14:47	701	JAPR05	7	5744	8
060209	14:47	701	PR05 calf	8	2744	calf
060209	14:47	701	JAPR14	9	8593	8
060209	14:47	701	PR14 religion	10	5560	religion
060209	14:47	701	JAPR19	11	6418	8
060209	14:47	701	PR19 void	12	2655	void
060209	14:47	701	JAPR12	13	4236	9
060209	14:47	701	PR12 royalty	14	8128	loyalty
060209	14:47	701	JAPR02	15	16899	2
060209	14:47	701	PR02 wrinkle	16	5729	wince
060209	14:47	701	JAPR10	17	6596	6
060209	14:47	701	PR10 camel	18	3018	camel
060209	14:47	701	JAPR15	19	10712	7
060209	14:47	701	PR15 depletion	20	5739	depletion
060209	14:47	701	JAPR20	21	10813	4
060209	14:47	701	PR20 advertisement	22	6828	advertisement
060209	14:47	701	JAPR29	23	7731	6
060209	14:47	701	PR29 mermaid	24	5292	mermaid
060209	14:47	701	JAPR16	25	10592	8
060209	14:47	701	PR16 compulsion	26	6120	compulsion
060209	14:47	701	JAPR22	27	15947	8
060209	14:47	701	PR22 ass	28	5166	last
060209	14:47	701	JAUR43	1	3906	3
060209	14:47	701	UR43 balloon	2	9155	balloon
060209	14:47	701	JAUR102	3	6749	9
060209	14:47	701	UR102 velocity	4	4381	victory
060209	14:47	701	JAHL08	5	10517	6
060209	14:47	701	HL08 math	6	5072	math
060209	14:47	701	JALH13	7	8492	7
060209	14:47	701	LH13 crease	8	3352	crease
060209	14:47	701	JALH08	9	7064	6
060209	14:47	701	LH08 house	10	2188	house
060209	14:47	701	JAUR71	11	3515	9
060209	14:47	701	UR71 padding	12	4363	paddle
060209	14:47	701	JAUR25	13	8420	9
060209	14:47	701	UR25 partner	14	4993	partner
060209	14:47	701	JALH47	15	5394	8
060209	14:47	701	LH47 detergent	16	4392	detergent
060209	14:47	701	JALH36	17	5999	5
060209	14:47	701	LH36 gang	18	3597	danger
060209	14:47	701	JAHL15	19	7316	7
060209	14:47	701	HL15 bomb	20	3054	bomb
060209	14:47	701	JAUR84	21	5658	9
060209	14:47	701	UR84 flag	22	2774	flag
060209	14:47	701	JAHL29	23	5710	8
060209	14:47	701	HL29 ring	24	7879	ring
060209	14:47	701	JALH29	25	8468	7
060209	14:47	701	LH29 closet	26	3296	closet
060209	14:47	701	JALH52	27	6228	8
060209	14:47	701	LH52 bureau	28	12345	bureau
060209	14:47	701	JALH48	29	8133	5
060209	14:47	701	LH48 outcome	30	4574	outcome
060209	14:47	701	JAUR29	31	7310	4
060209	14:47	701	UR29 patrol	32	4120	patrol
060209	14:47	701	JALH28	33	12059	5
060209	14:47	701	LH28 vagrant	34	5176	vacant
060209	14:47	701	JAHL52	35	8977	5
060209	14:47	701	HL52 sand	36	6329	sand
060209	14:47	701	JAHL44	37	4356	8
060209	14:47	701	HL44 baseball	38	4323	baseball
060209	14:47	701	JAUR37	39	13789	9
060209	14:47	701	UR37 cloth	40	3846	cloth
060209	14:47	701	JAUR81	41	13572	7
060209	14:47	701	UR81 acid	42	7605	acid
060209	14:47	701	JAUR88	43	9454	8
060209	14:47	701	UR88 circus	44	3331	circus
060209	14:47	701	JALH34	45	2244	9
060209	14:47	701	LH34 panel	46	3031	panel
060209	14:47	701	JAHL54	47	5589	8
060209	14:47	701	HL54 indian	48	3875	indian
060209	14:47	701	JAUR48	49	8175	7
060209	14:47	701	UR48 democracy	50	4903	democracy
060209	14:47	701	JAUR40	51	7082	9
060209	14:47	701	UR40 dancer	52	3741	cancer
060209	14:47	701	JAHL38	53	6399	8
060209	14:47	701	HL38 boat	54	3484	boat
060209	14:47	701	JALH18	55	5096	7
060209	14:47	701	LH18 edge	56	8513	lake
060209	14:47	701	JAUR89	57	11542	3
060209	14:47	701	UR89 crow	58	7016	crowd
060209	14:47	701	JAUR18	59	3608	9
060209	14:47	701	UR18 relief	60	7189	belief
060209	14:47	701	JAUR80	61	7662	8
060209	14:47	701	UR80 antique	62	5226	antique
060209	14:47	701	JAUR15	63	4257	7
060209	14:47	701	UR15 compass	64	7956	compass
060209	14:47	701	JAUR08	65	7822	8
060209	14:47	701	UR08 assistant	66	9156	assistant
060209	14:47	701	JAUR94	67	6510	9
060209	14:47	701	UR94 bristle	68	7160	bustle
060209	14:47	701	JAUR61	69	9938	2
060209	14:47	701	UR61 suicide	70	5348	suicide
060209	14:47	701	JAUR05	71	4086	7
060209	14:47	701	UR05 lease	72	3311	lease
060209	14:47	701	JAHL28	73	15298	2
060209	14:47	701	HL28 bird	74	2671	bird
060209	14:47	701	JAUR73	75	4779	8
060209	14:47	701	UR73 kite	76	2793	kite
060209	14:47	701	JAUR79	77	15920	1
060209	14:47	701	UR79 beetle	78	3621	beetle
060209	14:47	701	JAUR31	79	5067	7
060209	14:47	701	UR31 diameter	80	3534	diameter
060209	14:47	701	JAUR26	81	4344	8
060209	14:47	701	UR26 eternity	82	3479	eternity
060209	14:47	701	JALH21	83	4916	9
060209	14:47	701	LH21 monument	84	4508	moment
060209	14:47	701	JAHL48	85	4688	8
060209	14:47	701	HL48 airplane	86	5409	airplane
060209	14:47	701	JALH10	87	2801	9
060209	14:47	701	LH10 care	88	4925	cure
060209	14:47	701	JALH31	89	6576	8
060209	14:47	701	LH31 self	90	2567	self
060209	14:47	701	JAUR38	91	9799	4
060209	14:47	701	UR38 energy	92	6446	energy
060209	14:47	701	JAUR86	93	8788	8
060209	14:47	701	UR86 boulevard	94	6995	boulevard
060209	14:47	701	JAUR90	95	5140	6
060209	14:47	701	UR90 sailing	96	3716	sailing
060209	14:47	701	JAHL30	97	5126	8
060209	14:47	701	HL30 air	98	3415	air
060209	14:47	701	JAUR57	99	9701	4
060209	14:47	701	UR57 benefit	100	3408	benefit
060209	14:47	701	JALH12	101	3311	9
060209	14:47	701	LH12 addition	102	4392	addiction
060209	14:47	701	JAHL04	103	10624	8
060209	14:47	701	HL04 beer	104	2598	beer
060209	14:47	701	JAUR11	105	14037	3
060209	14:47	701	UR11 foundation	106	5076	foundation
060209	14:47	701	JALH33	107	3041	6
060209	14:47	701	LH33 fable	108	3092	fable
060209	14:47	701	JAHL11	109	8655	6
060209	14:47	701	HL11 rock	110	2884	rock
060209	14:47	701	JALH06	111	4215	7
060209	14:47	701	LH06 element	112	2844	element
060209	14:47	701	JAHL37	113	3249	8
060209	14:47	701	HL37 thread	114	2332	thread
060209	14:47	701	JALH44	115	5605	8
060209	14:47	701	LH44 vessel	116	3011	vessel
060209	14:47	701	JALH39	117	6913	5
060209	14:47	701	LH39 reward	118	5355	reward
060209	14:47	701	JALH49	119	5341	5
060209	14:47	701	LH49 kindness	120	4229	kindness
060209	14:47	701	JAUR39	121	4644	9
060209	14:47	701	UR39 faith	122	3753	faith
060209	14:47	701	JAUR33	123	7772	8
060209	14:47	701	UR33 horror	124	3860	horror
060209	14:47	701	JAUR02	125	5457	7
060209	14:47	701	UR02 comma	126	4356	coma
060209	14:47	701	JAUR93	127	6109	6
060209	14:47	701	UR93 catcher	128	8247	catcher
060209	14:47	701	JAHL19	129	7685	2
060209	14:47	701	HL19 car	130	2240	car
060209	14:47	701	JAUR49	131	5198	7
060209	14:47	701	UR49 casket	132	5179	casket
060209	14:47	701	JAHL35	133	10164	8
060209	14:47	701	HL35 cake	134	2476	cake
060209	14:47	701	JAUR44	135	6608	7
060209	14:47	701	UR44 rot	136	4742	rot
060209	14:47	701	JAUR91	137	9616	4
060209	14:47	701	UR91 anteater	138	6334	anthill
060209	14:47	701	JAHL46	139	10857	7
060209	14:47	701	HL46 butter	140	2742	butter
060209	14:47	701	JAUR09	141	7615	6
060209	14:47	701	UR09 education	142	4989	education
060209	14:47	701	JAUR83	143	5661	7
060209	14:47	701	UR83 lesson	144	3992	lesson
060209	14:47	701	JAHL18	145	10480	8
060209	14:47	701	HL18 paper	146	2220	paper
060209	14:47	701	JALH16	147	5258	8
060209	14:47	701	LH16 power	148	2725	power
060209	14:47	701	JAHL06	149	11711	3
060209	14:47	701	HL06 egg	150	2651	egg
060209	14:47	701	JAHL20	151	5655	9
060209	14:47	701	HL20 wine	152	2595	wine
060209	14:47	701	JAHL26	153	8050	6
060209	14:47	701	HL26 light	154	2782	light
060209	14:47	701	JALH42	155	5830	7
060209	14:47	701	LH42 thought	156	5659	light
060209	14:47	701	JAUR41	157	3312	8
060209	14:47	701	UR41 chime	158	2885	crime
060209	14:47	701	JAPR18	159	11610	4
060209	14:47	701	PR18 clorox	160	7802	cloak
060209	14:47	701	JALH35	161	4218	8
060209	14:47	701	LH35 shelter	162	3951	shelter
060209	14:47	701	JAUR16	163	10184	8
060209	14:47	701	UR16 century	164	3263	century
060209	14:47	701	JAUR108	165	9060	6
060209	14:47	701	UR108 shield	166	4040	shield
060209	14:47	701	JAHL12	167	9118	8
060209	14:47	701	HL12 space	168	3088	space
060209	14:47	701	JAUR23	169	9115	4
060209	14:47	701	UR23 abundance	170	16893	abundance
060209	14:47	701	JAUR104	171	4629	9
060209	14:47	701	UR104 aardvark	172	6649	aardvark
060209	14:47	701	JAUR56	173	9303	4
060209	14:47	701	UR56 antler	174	2642	anger
060209	14:47	701	JAHL16	175	5023	8
060209	14:47	701	HL16 broom	176	3604	broom
060209	14:47	701	JAHL40	177	6011	4
060209	14:47	701	HL40 temperature	178	5353	temperature
060209	14:47	701	JAUR101	179	4986	2
060209	14:47	701	UR101 beard	180	5184	beard
060209	14:47	701	JALH45	181	2824	8
060209	14:47	701	LH45 intellect	182	5892	intellect
060209	14:47	701	JAUR92	183	8305	8
060209	14:47	701	UR92 dart	184	2707	dark
060209	14:47	701	JAUR19	185	8846	5
060209	14:47	701	UR19 bison	186	5899	bacon
060209	14:47	701	JAUR99	187	2807	9
060209	14:47	701	UR99 branch	188	3283	branch
060209	14:47	701	JAUR10	189	13751	6
060209	14:47	701	UR10 tribe	190	2753	tribe
060209	14:47	701	JAUR72	191	5530	8
060209	14:47	701	UR72 band	192	4570	band
060209	14:47	701	JAUR100	193	7771	8
060209	14:47	701	UR100 comb	194	3507	combo
060209	14:47	701	JALH26	195	6142	9
060209	14:47	701	LH26 center	196	2822	center
060209	14:47	701	JAUR03	197	8444	7
060209	14:47	701	UR03 vehicle	198	10969	vehicle
060209	14:47	701	JAHL22	199	7740	9
060209	14:47	701	HL22 problem	200	3301	problem
060209	14:47	701	JALH15	201	4104	9
060209	14:47	701	LH15 blessing	202	3681	blessing
060209	14:47	701	JAHL27	203	9396	9
060209	14:47	701	HL27 rain	204	3819	rain
060209	14:47	701	JAHL02	205	7897	7
060209	14:47	701	HL02 flower	206	8524	flower
060209	14:47	701	JALH41	207	12831	7
060209	14:47	701	LH41 girl	208	2910	girl
060209	14:47	701	JAHL13	209	8529	6
060209	14:47	701	HL13 map	210	7947	map
060209	14:47	701	JAUR97	211	4117	7
060209	14:47	701	UR97 banner	212	3917	banner
060209	14:47	701	JALH40	213	14520	2
060209	14:47	701	LH40 field	214	2964	field
060209	14:47	701	JAUR51	215	8372	5
060209	14:47	701	UR51 cabbage	216	4355	cabbage
060209	14:47	701	JAUR12	217	4109	8
060209	14:47	701	UR12 unicorn	218	4630	unicorn

date	time	subject	trialcode	trialnum	latency	response
060509	11:58	711	JSPR17	1	34083	9
060509	11:58	711	PR17 emerald	2	45812	emerald
060509	11:58	711	JSPR27	3	46365	8
060509	11:58	711	PR27 wheat	4	24022	wheat
060509	11:58	711	JSPR07	5	54982	4
060509	11:58	711	PR07 bog	6	17823	music
060509	11:58	711	JSPR23	7	13173	2
060509	11:58	711	PR23 companion	8	4023	read
060509	11:58	711	JSPR06	9	16442	1
060509	11:58	711	PR06 beast	10	15173	look
060509	11:58	711	JSPR09	11	4952	3
060509	11:58	711	PR09 album	12	5320	bed
060509	11:58	711	JSPR21	13	10832	3
060509	11:58	711	PR21 innocence	14	4584	innocent
060509	11:58	711	JSPR01	15	8744	6
060509	11:58	711	PR01 cash	16	6548	cold
060509	11:58	711	JSPR11	17	3303	4
060509	11:58	711	PR11 ounce	18	3623	control
060509	11:58	711	JSPR25	19	15130	2
060509	11:58	711	PR25 saliva	20	18374	saliva
060509	11:58	711	JSPR30	21	26244	3
060509	11:58	711	PR30 maiden	22	13924	made
060509	11:58	711	JSPR03	23	24301	5
060509	11:58	711	PR03 acre	24	16169	scar
060509	11:58	711	JSPR13	25	7104	2
060509	11:58	711	PR13 ambition	26	2779	ambition
060509	11:58	711	JSPR04	27	12882	2
060509	11:58	711	PR04 diaper	28	8240	receptor
060509	11:58	711	JSPR28	29	27545	3
060509	11:58	711	PR28 challenge	30	3224	challenge
060509	11:58	711	JSUR42	1	12844	5
060509	11:58	711	UR42 sergeant	2	3667	agent
060509	11:58	711	JSUR52	3	11446	2
060509	11:58	711	UR52 knight	4	2514	knight
060509	11:58	711	JSLH01	5	6221	3
060509	11:58	711	LH01 brain	6	2014	brain
060509	11:58	711	JSHL45	7	12751	6
060509	11:58	711	HL45 words	8	1859	word
060509	11:58	711	JSLH03	9	5931	2
060509	11:58	711	LH03 yard	10	1832	yard
060509	11:58	711	JSHL21	11	9329	8
060509	11:58	711	HL21 empire	12	1923	empire
060509	11:58	711	JSLH38	13	6432	3
060509	11:58	711	LH38 paint	14	1824	paint
060509	11:58	711	JSLH43	15	12352	4
060509	11:58	711	LH43 noise	16	2798	noise
060509	11:58	711	JSLH37	17	5781	2
060509	11:58	711	LH37 pad	18	15361	mode
060509	11:58	711	JSHL07	19	23979	8
060509	11:58	711	HL07 king	20	1829	king
060509	11:58	711	JSHL39	21	4326	5
060509	11:58	711	HL39 book	22	1266	book
060509	11:58	711	JSLH24	23	7916	3
060509	11:58	711	LH24 feeling	24	1707	feeling
060509	11:58	711	JSHL42	25	5553	5
060509	11:58	711	HL42 pie	26	2247	pie
060509	11:58	711	JSUR30	27	8061	3
060509	11:58	711	UR30 lover	28	5846	lover
060509	11:58	711	JSUR95	29	15063	5
060509	11:58	711	UR95 fool	30	6774	foe
060509	11:58	711	JSLH20	31	7943	2
060509	11:58	711	LH20 violation	32	3881	valid
060509	11:58	711	JSUR96	33	4962	3
060509	11:58	711	UR96 dessert	34	2539	desert
060509	11:58	711	JSUR66	35	6231	2
060509	11:58	711	UR66 chief	36	2139	chief
060509	11:58	711	JSHL17	37	9688	3
060509	11:58	711	HL17 soap	38	4873	soap
060509	11:58	711	JSUR06	39	4734	2
060509	11:58	711	UR06 cello	40	2528	cello
060509	11:58	711	JSLH32	41	3899	4
060509	11:58	711	LH32 capacity	42	2569	capacity
060509	11:58	711	JSUR103	43	16305	7
060509	11:58	711	UR103 hula	44	2156	hula
060509	11:58	711	JSHL23	45	13367	4
060509	11:58	711	HL23 baby	46	1513	baby
060509	11:58	711	JSUR63	47	5415	2
060509	11:58	711	UR63 alley	48	1716	alley
060509	11:58	711	JSLH11	49	4754	2
060509	11:58	711	LH11 cancer	50	1771	cancer
060509	11:58	711	JSHL03	51	5343	2
060509	11:58	711	HL03 cigarette	52	3071	cigar
060509	11:58	711	JSUR28	53	7065	7
060509	11:58	711	UR28 bang	54	4286	bang
060509	11:58	711	JSLH04	55	6395	4
060509	11:58	711	LH04 grade	56	2365	grade
060509	11:58	711	JSHL01	57	4070	6
060509	11:58	711	HL01 elephant	58	3429	elephant
060509	11:58	711	JSLH27	59	13088	2
060509	11:58	711	LH27 condition	60	2086	condition
060509	11:58	711	JSLH51	61	8707	4
060509	11:58	711	LH51 exit	62	2624	exit
060509	11:58	711	JSLH07	63	22638	4
060509	11:58	711	LH07 rear	64	3107	rear
060509	11:58	711	JSHL41	65	5908	3
060509	11:58	711	HL41 hand	66	1483	hand
060509	11:58	711	JSUR50	67	8131	2
060509	11:58	711	UR50 crane	68	2097	crane
060509	11:58	711	JSUR76	69	6750	3
060509	11:58	711	UR76 dignity	70	4030	dignity
060509	11:58	711	JSUR69	71	5353	2
060509	11:58	711	UR69 flashlight	72	3928	flashlight
060509	11:58	711	JSUR85	73	5557	2
060509	11:58	711	UR85 stroke	74	1907	stroke
060509	11:58	711	JSHL47	75	5649	3
060509	11:58	711	HL47 horse	76	1987	horse
060509	11:58	711	JSHL49	77	4069	2
060509	11:58	711	HL49 spice	78	2004	spice
060509	11:58	711	JSUR22	79	5862	1
060509	11:58	711	UR22 thesaurus	80	7287	theater
060509	11:58	711	JSLH25	81	5850	4
060509	11:58	711	LH25 track	82	1571	track
060509	11:58	711	JSUR82	83	4783	3
060509	11:58	711	UR82 campus	84	2159	campus
060509	11:58	711	JSLH02	85	4721	4
060509	11:58	711	LH02 harm	86	1377	harm
060509	11:58	711	JSLH14	87	8016	1
060509	11:58	711	LH14 note	88	1339	note
060509	11:58	711	JSUR70	89	7633	2
060509	11:58	711	UR70 pajamas	90	3788	pajamas
060509	11:58	711	JSHL31	91	5408	2
060509	11:58	711	HL31 war	92	1340	war
060509	11:58	711	JSLH50	93	7082	6
060509	11:58	711	LH50 measure	94	6398	measure
060509	11:58	711	JSUR60	95	6743	5
060509	11:58	711	UR60 plaque	96	12729	plank
060509	11:58	711	JSUR68	97	4183	1
060509	11:58	711	UR68 fatigue	98	2745	fade
060509	11:58	711	JSUR20	99	2985	2
060509	11:58	711	UR20 climax	100	5856	climb
060509	11:58	711	JSHL09	101	5993	2
060509	11:58	711	HL09 chalk	102	1988	chalk
060509	11:58	711	JSLH09	103	5070	1
060509	11:58	711	LH09 piece	104	2946	piece
060509	11:58	711	JSUR27	105	4585	3
060509	11:58	711	UR27 consequence	106	10818	consequence
060509	11:58	711	JSLH30	107	6906	5
060509	11:58	711	LH30 assignment	108	3638	assignment
060509	11:58	711	JSUR67	109	12352	2
060509	11:58	711	UR67 producer	110	14965	squander
060509	11:58	711	JSUR13	111	15673	6
060509	11:58	711	UR13 almanac	112	3966	almanac
060509	11:58	711	JSUR107	113	5945	4
060509	11:58	711	UR107 cocaine	114	3863	coke
060509	11:58	711	JSUR65	115	8199	7
060509	11:58	711	UR65 checkers	116	4226	bread
060509	11:58	711	JSUR59	117	5874	2
060509	11:58	711	UR59 copper	118	2154	copper
060509	11:58	711	JSHL53	119	3829	4
060509	11:58	711	HL53 fish	120	1399	fish
060509	11:58	711	JSUR47	121	8042	2
060509	11:58	711	UR47 chimpanzee	122	5165	chimpanzee
060509	11:58	711	JSUR58	123	3148	2
060509	11:58	711	UR58 answer	124	2795	answer
060509	11:58	711	JSLH53	125	5474	3
060509	11:58	711	LH53 core	126	1739	core
060509	11:58	711	JSUR105	127	3320	1
060509	11:58	711	UR105 curtain	128	5208	certain
060509	11:58	711	JSHL05	129	2765	1
060509	11:58	711	HL05 mountain	130	2477	mountain
060509	11:58	711	JSUR64	131	5162	3
060509	11:58	711	UR64 fist	132	12265	missed
060509	11:58	711	JSUR32	133	3938	1
060509	11:58	711	UR32 navigator	134	3479	navigator
060509	11:58	711	JSUR04	135	2696	3
060509	11:58	711	UR04 marsh	136	1819	marsh
060509	11:58	711	JSHL34	137	5623	3
060509	11:58	711	HL34 hunger	138	1930	hunger
060509	11:58	711	JSUR106	139	4279	2
060509	11:58	711	UR106 eagle	140	1597	eagle
060509	11:58	711	JSUR77	141	4576	3
060509	11:58	711	UR77 uncle	142	1729	uncle
060509	11:58	711	JSUR35	143	3431	1
060509	11:58	711	UR35 cause	144	1761	cause
060509	11:58	711	JSHL43	145	3085	1
060509	11:58	711	HL43 money	146	4263	money
060509	11:58	711	JSLH23	147	3646	2
060509	11:58	711	LH23 possibility	148	6079	possibility
060509	11:58	711	JSUR36	149	3215	2
060509	11:58	711	UR36 denim	150	2195	denim
060509	11:58	711	JSHL24	151	3596	2
060509	11:58	711	HL24 eye	152	1448	eye
060509	11:58	711	JSLH22	153	2769	4
060509	11:58	711	LH22 crowd	154	1713	crowd
060509	11:58	711	JSLH05	155	2935	3
060509	11:58	711	LH05 chain	156	1272	chain
060509	11:58	711	JSUR45	157	5681	5
060509	11:58	711	UR45 bridge	158	2218	bridge
060509	11:58	711	JSHL33	159	5138	4
060509	11:58	711	HL33 joke	160	1426	joke
060509	11:58	711	JSUR14	161	9836	3
060509	11:58	711	UR14 fudge	162	2808	con
060509	11:58	711	JSUR46	163	6758	4
060509	11:58	711	UR46 content	164	2064	content
060509	11:58	711	JSUR78	165	27486	5
060509	11:58	711	UR78 blender	166	5663	blender
060509	11:58	711	JSUR62	167	7120	6
060509	11:58	711	UR62 chemistry	168	3098	chemistry
060509	11:58	711	JSUR75	169	2564	1
060509	11:58	711	UR75 awe	170	3101	awe
060509	11:58	711	JSLH46	171	3038	1
060509	11:58	711	LH46 submarine	172	2154	submarine
060509	11:58	711	JSLH17	173	4421	2
060509	11:58	711	LH17 life	174	1301	life
060509	11:58	711	JSUR21	175	2973	3
060509	11:58	711	UR21 ore	176	2764	ore
060509	11:58	711	JSUR17	177	3788	2
060509	11:58	711	UR17 trance	178	1601	trance
060509	11:58	711	JSUR98	179	10007	3
060509	11:58	711	UR98 latch	180	2146	latch
060509	11:58	711	JSHL36	181	6197	1
060509	11:58	711	HL36 football	182	2208	football
060509	11:58	711	JSHL32	183	5656	6
060509	11:58	711	HL32 television	184	2550	television
060509	11:58	711	JSLH19	185	3722	3
060509	11:58	711	LH19 snob	186	1344	snob
060509	11:58	711	JSHL51	187	3158	2
060509	11:58	711	HL51 color	188	1382	color
060509	11:58	711	JSHL50	189	3818	1
060509	11:58	711	HL50 doctor	190	1772	doctor
060509	11:58	711	JSUR53	191	2815	2
060509	11:58	711	UR53 hell	192	1861	hello
060509	11:58	711	JSUR87	193	6133	2
060509	11:58	711	UR87 duty	194	1474	duty
060509	11:58	711	JSHL25	195	4450	5
060509	11:58	711	HL25 cut	196	1168	cut
060509	11:58	711	JSHL14	197	3630	2
060509	11:58	711	HL14 milk	198	1544	milk
060509	11:58	711	JSHL10	199	9414	3
060509	11:58	711	HL10 cow	200	1156	cow
060509	11:58	711	JSUR01	201	4282	1
060509	11:58	711	UR01 file	202	1263	file
060509	11:58	711	JSUR55	203	6513	6
060509	11:58	711	UR55 bargain	204	7605	bargain
060509	11:58	711	JSUR07	205	4674	3
060509	11:58	711	UR07 gathering	206	1975	gather
060509	11:58	711	JSUR74	207	5641	3
060509	11:58	711	UR74 suitcase	208	5764	suite
060509	11:58	711	JSUR34	209	8497	2
060509	11:58	711	UR34 charity	210	2127	charity
060509	11:58	711	JSLH54	211	3170	4
060509	11:58	711	LH54 limit	212	1668	limit
060509	11:58	711	JSUR54	213	2359	1
060509	11:58	711	UR54 steam	214	3440	steam
060509	11:58	711	JSUR24	215	2435	2
060509	11:58	711	UR24 kid	216	3002	kid
060509	11:58	711	JAPR26	1	36640	2
060509	11:58	711	PR26 colonel	2	10073	face
060509	11:58	711	JAPR24	3	38242	3
060509	11:58	711	PR24 pest	4	5286	phase
060509	11:58	711	JAPR08	5	14047	7
060509	11:58	711	PR08 beef	6	2395	bee
060509	11:58	711	JAPR05	7	6947	4
060509	11:58	711	PR05 calf	8	2645	date
060509	11:58	711	JAPR14	9	8402	7
060509	11:58	711	PR14 religion	10	4820	grief
060509	11:58	711	JAPR19	11	9994	4
060509	11:58	711	PR19 void	12	1622	vow
060509	11:58	711	JAPR12	13	5824	6
060509	11:58	711	PR12 royalty	14	2346	ruler
060509	11:58	711	JAPR02	15	3045	5
060509	11:58	711	PR02 wrinkle	16	3400	monday
060509	11:58	711	JAPR10	17	22988	3
060509	11:58	711	PR10 camel	18	2409	camera
060509	11:58	711	JAPR15	19	19393	5
060509	11:58	711	PR15 depletion	20	3539	musk
060509	11:58	711	JAPR20	21	6201	4
060509	11:58	711	PR20 advertisement	22	2595	advice
060509	11:58	711	JAPR29	23	4475	3
060509	11:58	711	PR29 mermaid	24	7424	meteorite
060509	11:58	711	JAPR16	25	12133	3
060509	11:58	711	PR16 compulsion	26	3852	compliment
060509	11:58	711	JAPR22	27	4029	4
060509	11:58	711	PR22 ass	28	3878	asphalt
060509	11:58	711	JAUR43	1	65895	5
060509	11:58	711	UR43 balloon	2	3284	balloon
060509	11:58	711	JAUR102	3	7662	6
060509	11:58	711	UR102 velocity	4	2040	velocity
060509	11:58	711	JAHL08	5	5375	4
060509	11:58	711	HL08 math	6	1221	math
060509	11:58	711	JALH13	7	13312	3
060509	11:58	711	LH13 crease	8	5876	cease
060509	11:58	711	JALH08	9	3404	2
060509	11:58	711	LH08 house	10	1353	house
060509	11:58	711	JAUR71	11	2943	2
060509	11:58	711	UR71 padding	12	3927	padding
060509	11:58	711	JAUR25	13	7820	3
060509	11:58	711	UR25 partner	14	3744	part
060509	11:58	711	JALH47	15	2222	3
060509	11:58	711	LH47 detergent	16	2494	detergent
060509	11:58	711	JALH36	17	76672	4
060509	11:58	711	LH36 gang	18	1718	gang
060509	11:58	711	JAHL15	19	2788	2
060509	11:58	711	HL15 bomb	20	1172	bomb
060509	11:58	711	JAUR84	21	1241	1
060509	11:58	711	UR84 flag	22	1531	flag
060509	11:58	711	JAHL29	23	8009	2
060509	11:58	711	HL29 ring	24	2949	ring
060509	11:58	711	JALH29	25	1613	1
060509	11:58	711	LH29 closet	26	1447	closet
060509	11:58	711	JALH52	27	1977	3
060509	11:58	711	LH52 bureau	28	6763	bureau
060509	11:58	711	JALH48	29	1845	2
060509	11:58	711	LH48 outcome	30	2261	outcome
060509	11:58	711	JAUR29	31	2235	2
060509	11:58	711	UR29 patrol	32	2258	patrol
060509	11:58	711	JALH28	33	2824	3
060509	11:58	711	LH28 vagrant	34	10438	vagrant
060509	11:58	711	JAHL52	35	3271	1
060509	11:58	711	HL52 sand	36	1393	sand
060509	11:58	711	JAHL44	37	25060	2
060509	11:58	711	HL44 baseball	38	1927	baseball
060509	11:58	711	JAUR37	39	2124	2
060509	11:58	711	UR37 cloth	40	1503	cloth
060509	11:58	711	JAUR81	41	3087	3
060509	11:58	711	UR81 acid	42	1993	acid
060509	11:58	711	JAUR88	43	3074	2
060509	11:58	711	UR88 circus	44	1477	circus
060509	11:58	711	JALH34	45	646	1
060509	11:58	711	LH34 panel	46	1530	panel
060509	11:58	711	JAHL54	47	1760	1
060509	11:58	711	HL54 indian	48	1396	indian
060509	11:58	711	JAUR48	49	1664	1
060509	11:58	711	UR48 democracy	50	8120	decorate
060509	11:58	711	JAUR40	51	2470	2
060509	11:58	711	UR40 dancer	52	1700	dancer
060509	11:58	711	JAHL38	53	2442	1
060509	11:58	711	HL38 boat	54	992	boat
060509	11:58	711	JALH18	55	9214	2
060509	11:58	711	LH18 edge	56	1488	edge
060509	11:58	711	JAUR89	57	8913	2
060509	11:58	711	UR89 crow	58	3285	road
060509	11:58	711	JAUR18	59	3615	2
060509	11:58	711	UR18 relief	60	1394	relief
060509	11:58	711	JAUR80	61	1750	1
060509	11:58	711	UR80 antique	62	2138	antique
060509	11:58	711	JAUR15	63	6310	2
060509	11:58	711	UR15 compass	64	2931	compass
060509	11:58	711	JAUR08	65	13659	1
060509	11:58	711	UR08 assistant	66	2408	assistant
060509	11:58	711	JAUR94	67	2775	2
060509	11:58	711	UR94 bristle	68	3535	back
060509	11:58	711	JAUR61	69	7045	1
060509	11:58	711	UR61 suicide	70	3002	suicide
060509	11:58	711	JAUR05	71	1000	2
060509	11:58	711	UR05 lease	72	4285	length
060509	11:58	711	JAHL28	73	4243	2
060509	11:58	711	HL28 bird	74	1139	bird
060509	11:58	711	JAUR73	75	1073	1
060509	11:58	711	UR73 kite	76	6387	kite
060509	11:58	711	JAUR79	77	1733	1
060509	11:58	711	UR79 beetle	78	3971	beetle
060509	11:58	711	JAUR31	79	2950	2
060509	11:58	711	UR31 diameter	80	4902	diameter
060509	11:58	711	JAUR26	81	2065	2
060509	11:58	711	UR26 eternity	82	11911	ethnic
060509	11:58	711	JALH21	83	1768	1
060509	11:58	711	LH21 monument	84	2659	monument
060509	11:58	711	JAHL48	85	2112	2
060509	11:58	711	HL48 airplane	86	1732	airplane
060509	11:58	711	JALH10	87	4186	2
060509	11:58	711	LH10 care	88	1140	care
060509	11:58	711	JALH31	89	2562	1
060509	11:58	711	LH31 self	90	1139	self
060509	11:58	711	JAUR38	91	6810	1
060509	11:58	711	UR38 energy	92	1369	energy
060509	11:58	711	JAUR86	93	3071	2
060509	11:58	711	UR86 boulevard	94	3817	boulevard
060509	11:58	711	JAUR90	95	1603	1
060509	11:58	711	UR90 sailing	96	3222	sales
060509	11:58	711	JAHL30	97	2186	2
060509	11:58	711	HL30 air	98	7700	air
060509	11:58	711	JAUR57	99	2412	1
060509	11:58	711	UR57 benefit	100	6851	brief
060509	11:58	711	JALH12	101	2001	2
060509	11:58	711	LH12 addition	102	2515	addition
060509	11:58	711	JAHL04	103	5310	3
060509	11:58	711	HL04 beer	104	1191	beer
060509	11:58	711	JAUR11	105	7003	1
060509	11:58	711	UR11 foundation	106	2899	foundation
060509	11:58	711	JALH33	107	2765	2
060509	11:58	711	LH33 fable	108	1085	fable
060509	11:58	711	JAHL11	109	2063	2
060509	11:58	711	HL11 rock	110	1061	rock
060509	11:58	711	JALH06	111	1544	2
060509	11:58	711	LH06 element	112	1429	element
060509	11:58	711	JAHL37	113	719	1
060509	11:58	711	HL37 thread	114	1489	thread
060509	11:58	711	JALH44	115	1584	1
060509	11:58	711	LH44 vessel	116	1380	vessel
060509	11:58	711	JALH39	117	3273	1
060509	11:58	711	LH39 reward	118	2499	reward
060509	11:58	711	JALH49	119	14286	2
060509	11:58	711	LH49 kindness	120	3887	kindness
060509	11:58	711	JAUR39	121	3254	1
060509	11:58	711	UR39 faith	122	1218	faith
060509	11:58	711	JAUR33	123	2175	2
060509	11:58	711	UR33 horror	124	6545	horror
060509	11:58	711	JAUR02	125	7076	1
060509	11:58	711	UR02 comma	126	1448	coma
060509	11:58	711	JAUR93	127	14265	1
060509	11:58	711	UR93 catcher	128	7915	cater
060509	11:58	711	JAHL19	129	1787	3
060509	11:58	711	HL19 car	130	1478	cattle
060509	11:58	711	JAUR49	131	1230	2
060509	11:58	711	UR49 casket	132	8993	cask
060509	11:58	711	JAHL35	133	3497	1
060509	11:58	711	HL35 cake	134	1001	cake
060509	11:58	711	JAUR44	135	10334	1
060509	11:58	711	UR44 rot	136	3940	rot
060509	11:58	711	JAUR91	137	1433	1
060509	11:58	711	UR91 anteater	138	2956	theater
060509	11:58	711	JAHL46	139	3220	3
060509	11:58	711	HL46 butter	140	2592	butter
060509	11:58	711	JAUR09	141	16359	2
060509	11:58	711	UR09 education	142	3654	education
060509	11:58	711	JAUR83	143	2095	1
060509	11:58	711	UR83 lesson	144	1917	lesson
060509	11:58	711	JAHL18	145	3306	3
060509	11:58	711	HL18 paper	146	2307	paper
060509	11:58	711	JALH16	147	1575	3
060509	11:58	711	LH16 power	148	1755	power
060509	11:58	711	JAHL06	149	2879	2
060509	11:58	711	HL06 egg	150	1474	egg
060509	11:58	711	JAHL20	151	1947	4
060509	11:58	711	HL20 wine	152	886	wine
060509	11:58	711	JAHL26	153	1456	1
060509	11:58	711	HL26 light	154	1193	light
060509	11:58	711	JALH42	155	5750	3
060509	11:58	711	LH42 thought	156	1292	thought
060509	11:58	711	JAUR41	157	5884	1
060509	11:58	711	UR41 chime	158	1315	chime
060509	11:58	711	JAPR18	159	5141	2
060509	11:58	711	PR18 clorox	160	4093	cork
060509	11:58	711	JALH35	161	2468	1
060509	11:58	711	LH35 shelter	162	2433	shelter
060509	11:58	711	JAUR16	163	1295	2
060509	11:58	711	UR16 century	164	2840	century
060509	11:58	711	JAUR108	165	2236	1
060509	11:58	711	UR108 shield	166	5644	shield
060509	11:58	711	JAHL12	167	1854	2
060509	11:58	711	HL12 space	168	1470	space
060509	11:58	711	JAUR23	169	5111	1
060509	11:58	711	UR23 abundance	170	5024	abstain
060509	11:58	711	JAUR104	171	1774	1
060509	11:58	711	UR104 aardvark	172	4241	aardvark
060509	11:58	711	JAUR56	173	1409	1
060509	11:58	711	UR56 antler	174	4292	antler
060509	11:58	711	JAHL16	175	4425	2
060509	11:58	711	HL16 broom	176	3233	broom
060509	11:58	711	JAHL40	177	1613	1
060509	11:58	711	HL40 temperature	178	2463	temperature
060509	11:58	711	JAUR101	179	2740	3
060509	11:58	711	UR101 beard	180	3614	beard
060509	11:58	711	JALH45	181	5112	2
060509	11:58	711	LH45 intellect	182	4194	intellect
060509	11:58	711	JAUR92	183	2812	2
060509	11:58	711	UR92 dart	184	4066	dirt
060509	11:58	711	JAUR19	185	1673	1
060509	11:58	711	UR19 bison	186	3832	bison
060509	11:58	711	JAUR99	187	4202	3
060509	11:58	711	UR99 branch	188	1355	branch
060509	11:58	711	JAUR10	189	1696	2
060509	11:58	711	UR10 tribe	190	5583	trim
060509	11:58	711	JAUR72	191	6828	2
060509	11:58	711	UR72 band	192	5131	band
060509	11:58	711	JAUR100	193	1660	2
060509	11:58	711	UR100 comb	194	1348	comb
060509	11:58	711	JALH26	195	2618	3
060509	11:58	711	LH26 center	196	1713	center
060509	11:58	711	JAUR03	197	3183	2
060509	11:58	711	UR03 vehicle	198	2188	vehicle
060509	11:58	711	JAHL22	199	1062	1
060509	11:58	711	HL22 problem	200	1480	problem
060509	11:58	711	JALH15	201	1409	2
060509	11:58	711	LH15 blessing	202	2516	blessing
060509	11:58	711	JAHL27	203	2678	1
060509	11:58	711	HL27 rain	204	1722	rain
060509	11:58	711	JAHL02	205	2703	2
060509	11:58	711	HL02 flower	206	1930	flower
060509	11:58	711	JALH41	207	2639	2
060509	11:58	711	LH41 girl	208	861	girl
060509	11:58	711	JAHL13	209	1672	1
060509	11:58	711	HL13 map	210	1240	map
060509	11:58	711	JAUR97	211	1786	2
060509	11:58	711	UR97 banner	212	2301	banner
060509	11:58	711	JALH40	213	2521	1
060509	11:58	711	LH40 field	214	2156	field
060509	11:58	711	JAUR51	215	3919	2
060509	11:58	711	UR51 cabbage	216	3076	cabbage
060509	11:58	711	JAUR12	217	1823	2
060509	11:58	711	UR12 unicorn	218	4208	unicorn


date	time	subject	trialcode	trialnum	latency	response
060909	15:00	705	JSPR17	1	34742	5
060909	15:00	705	PR17 emerald	2	26354	emerald
060909	15:00	705	JSPR27	3	5300	8
060909	15:00	705	PR27 wheat	4	15022	what
060909	15:00	705	JSPR07	5	5407	5
060909	15:00	705	PR07 bog	6	8755	blue
060909	15:00	705	JSPR23	7	15062	8
060909	15:00	705	PR23 companion	8	9286	companion
060909	15:00	705	JSPR06	9	7939	6
060909	15:00	705	PR06 beast	10	5561	beast
060909	15:00	705	JSPR09	11	14223	9
060909	15:00	705	PR09 album	12	3619	alarm
060909	15:00	705	JSPR21	13	7094	4
060909	15:00	705	PR21 innocence	14	9472	innocence
060909	15:00	705	JSPR01	15	5188	3
060909	15:00	705	PR01 cash	16	2010	cash
060909	15:00	705	JSPR11	17	3770	6
060909	15:00	705	PR11 ounce	18	6711	ounce
060909	15:00	705	JSPR25	19	4722	9
060909	15:00	705	PR25 saliva	20	2893	saliva
060909	15:00	705	JSPR30	21	8079	3
060909	15:00	705	PR30 maiden	22	2495	maiden
060909	15:00	705	JSPR03	23	6258	7
060909	15:00	705	PR03 acre	24	2042	acre
060909	15:00	705	JSPR13	25	5273	4
060909	15:00	705	PR13 ambition	26	3948	ambition
060909	15:00	705	JSPR04	27	6896	2
060909	15:00	705	PR04 diaper	28	5419	diamond
060909	15:00	705	JSPR28	29	4007	6
060909	15:00	705	PR28 challenge	30	8217	alien
060909	15:00	705	JSUR42	1	11280	3
060909	15:00	705	UR42 sergeant	2	4610	servant
060909	15:00	705	JSUR52	3	7891	4
060909	15:00	705	UR52 knight	4	3796	knight
060909	15:00	705	JSLH01	5	5455	6
060909	15:00	705	LH01 brain	6	2970	brain
060909	15:00	705	JSHL45	7	8817	8
060909	15:00	705	HL45 words	8	2432	words
060909	15:00	705	JSLH03	9	4335	6
060909	15:00	705	LH03 yard	10	6730	yards
060909	15:00	705	JSHL21	11	3069	5
060909	15:00	705	HL21 empire	12	2448	empire
060909	15:00	705	JSLH38	13	3606	9
060909	15:00	705	LH38 paint	14	2449	pain
060909	15:00	705	JSLH43	15	5831	8
060909	15:00	705	LH43 noise	16	4042	noise
060909	15:00	705	JSLH37	17	4506	3
060909	15:00	705	LH37 pad	18	3246	pain
060909	15:00	705	JSHL07	19	4977	5
060909	15:00	705	HL07 king	20	5680	king
060909	15:00	705	JSHL39	21	3129	7
060909	15:00	705	HL39 book	22	3201	book
060909	15:00	705	JSLH24	23	4782	8
060909	15:00	705	LH24 feeling	24	5670	feelings
060909	15:00	705	JSHL42	25	4687	4
060909	15:00	705	HL42 pie	26	1843	pie
060909	15:00	705	JSUR30	27	5459	3
060909	15:00	705	UR30 lover	28	1997	lover
060909	15:00	705	JSUR95	29	6847	6
060909	15:00	705	UR95 fool	30	2293	fool
060909	15:00	705	JSLH20	31	6505	5
060909	15:00	705	LH20 violation	32	3057	violation
060909	15:00	705	JSUR96	33	7223	3
060909	15:00	705	UR96 dessert	34	3747	dessert
060909	15:00	705	JSUR66	35	4053	5
060909	15:00	705	UR66 chief	36	4275	chief
060909	15:00	705	JSHL17	37	3867	8
060909	15:00	705	HL17 soap	38	2817	soap
060909	15:00	705	JSUR06	39	4272	7
060909	15:00	705	UR06 cello	40	10839	celcius
060909	15:00	705	JSLH32	41	4055	7
060909	15:00	705	LH32 capacity	42	2686	capacity
060909	15:00	705	JSUR103	43	4770	8
060909	15:00	705	UR103 hula	44	5290	hula
060909	15:00	705	JSHL23	45	7926	4
060909	15:00	705	HL23 baby	46	1781	baby
060909	15:00	705	JSUR63	47	8560	5
060909	15:00	705	UR63 alley	48	6019	allergy
060909	15:00	705	JSLH11	49	3878	5
060909	15:00	705	LH11 cancer	50	2253	cancer
060909	15:00	705	JSHL03	51	4788	8
060909	15:00	705	HL03 cigarette	52	9603	cigarette
060909	15:00	705	JSUR28	53	3465	6
060909	15:00	705	UR28 bang	54	12826	bully
060909	15:00	705	JSLH04	55	5099	5
060909	15:00	705	LH04 grade	56	2286	grade
060909	15:00	705	JSHL01	57	3123	7
060909	15:00	705	HL01 elephant	58	3396	elephant
060909	15:00	705	JSLH27	59	4432	5
060909	15:00	705	LH27 condition	60	3295	condition
060909	15:00	705	JSLH51	61	3959	7
060909	15:00	705	LH51 exit	62	12619	exit
060909	15:00	705	JSLH07	63	2845	7
060909	15:00	705	LH07 rear	64	2481	rear
060909	15:00	705	JSHL41	65	4334	3
060909	15:00	705	HL41 hand	66	4817	hand
060909	15:00	705	JSUR50	67	3079	5
060909	15:00	705	UR50 crane	68	5210	cramp
060909	15:00	705	JSUR76	69	2527	8
060909	15:00	705	UR76 dignity	70	4536	dignity
060909	15:00	705	JSUR69	71	3157	4
060909	15:00	705	UR69 flashlight	72	4572	flashlight
060909	15:00	705	JSUR85	73	3709	4
060909	15:00	705	UR85 stroke	74	2932	stroke
060909	15:00	705	JSHL47	75	2757	7
060909	15:00	705	HL47 horse	76	3222	horse
060909	15:00	705	JSHL49	77	3394	5
060909	15:00	705	HL49 spice	78	2326	spice
060909	15:00	705	JSUR22	79	3041	8
060909	15:00	705	UR22 thesaurus	80	4349	thesaurus
060909	15:00	705	JSLH25	81	2792	8
060909	15:00	705	LH25 track	82	2543	track
060909	15:00	705	JSUR82	83	2608	8
060909	15:00	705	UR82 campus	84	3943	campus
060909	15:00	705	JSLH02	85	4100	6
060909	15:00	705	LH02 harm	86	1857	harm
060909	15:00	705	JSLH14	87	10538	9
060909	15:00	705	LH14 note	88	1887	note
060909	15:00	705	JSUR70	89	13541	9
060909	15:00	705	UR70 pajamas	90	7055	pajamas
060909	15:00	705	JSHL31	91	9364	8
060909	15:00	705	HL31 war	92	2756	war
060909	15:00	705	JSLH50	93	3893	9
060909	15:00	705	LH50 measure	94	2884	measure
060909	15:00	705	JSUR60	95	3663	3
060909	15:00	705	UR60 plaque	96	3535	plague
060909	15:00	705	JSUR68	97	3670	4
060909	15:00	705	UR68 fatigue	98	4846	faucet
060909	15:00	705	JSUR20	99	4788	6
060909	15:00	705	UR20 climax	100	3051	climate
060909	15:00	705	JSHL09	101	3495	9
060909	15:00	705	HL09 chalk	102	2095	chalk
060909	15:00	705	JSLH09	103	4148	4
060909	15:00	705	LH09 piece	104	2183	piece
060909	15:00	705	JSUR27	105	6729	5
060909	15:00	705	UR27 consequence	106	4116	consequence
060909	15:00	705	JSLH30	107	2121	9
060909	15:00	705	LH30 assignment	108	3221	assignment
060909	15:00	705	JSUR67	109	9937	3
060909	15:00	705	UR67 producer	110	2568	producer
060909	15:00	705	JSUR13	111	4089	8
060909	15:00	705	UR13 almanac	112	5071	animal
060909	15:00	705	JSUR107	113	3458	8
060909	15:00	705	UR107 cocaine	114	6284	alone
060909	15:00	705	JSUR65	115	12619	3
060909	15:00	705	UR65 checkers	116	10445	cheese
060909	15:00	705	JSUR59	117	6485	9
060909	15:00	705	UR59 copper	118	5643	copier
060909	15:00	705	JSHL53	119	3062	5
060909	15:00	705	HL53 fish	120	1681	fish
060909	15:00	705	JSUR47	121	4704	7
060909	15:00	705	UR47 chimpanzee	122	13299	chimney
060909	15:00	705	JSUR58	123	4463	7
060909	15:00	705	UR58 answer	124	1925	answer
060909	15:00	705	JSLH53	125	3450	9
060909	15:00	705	LH53 core	126	1588	core
060909	15:00	705	JSUR105	127	3855	7
060909	15:00	705	UR105 curtain	128	2839	cursive
060909	15:00	705	JSHL05	129	2885	4
060909	15:00	705	HL05 mountain	130	8063	mountain
060909	15:00	705	JSUR64	131	2504	9
060909	15:00	705	UR64 fist	132	2772	cents
060909	15:00	705	JSUR32	133	3492	2
060909	15:00	705	UR32 navigator	134	11804	navigator
060909	15:00	705	JSUR04	135	3562	8
060909	15:00	705	UR04 marsh	136	3720	mask
060909	15:00	705	JSHL34	137	3560	6
060909	15:00	705	HL34 hunger	138	2662	hunger
060909	15:00	705	JSUR106	139	4394	2
060909	15:00	705	UR106 eagle	140	2691	eagle
060909	15:00	705	JSUR77	141	4143	8
060909	15:00	705	UR77 uncle	142	2651	unit
060909	15:00	705	JSUR35	143	2984	7
060909	15:00	705	UR35 cause	144	1903	cause
060909	15:00	705	JSHL43	145	3989	3
060909	15:00	705	HL43 money	146	1712	money
060909	15:00	705	JSLH23	147	4365	9
060909	15:00	705	LH23 possibility	148	3175	possibility
060909	15:00	705	JSUR36	149	3694	2
060909	15:00	705	UR36 denim	150	2438	denial
060909	15:00	705	JSHL24	151	4412	1
060909	15:00	705	HL24 eye	152	1949	eye
060909	15:00	705	JSLH22	153	2736	5
060909	15:00	705	LH22 crowd	154	2722	crowd
060909	15:00	705	JSLH05	155	3492	9
060909	15:00	705	LH05 chain	156	3837	chain
060909	15:00	705	JSUR45	157	3822	8
060909	15:00	705	UR45 bridge	158	4272	bride
060909	15:00	705	JSHL33	159	2230	4
060909	15:00	705	HL33 joke	160	2509	joke
060909	15:00	705	JSUR14	161	5544	6
060909	15:00	705	UR14 fudge	162	3631	fugitive
060909	15:00	705	JSUR46	163	7713	7
060909	15:00	705	UR46 content	164	3225	content
060909	15:00	705	JSUR78	165	3333	7
060909	15:00	705	UR78 blender	166	6756	blender
060909	15:00	705	JSUR62	167	3167	7
060909	15:00	705	UR62 chemistry	168	5309	chemistry
060909	15:00	705	JSUR75	169	3326	1
060909	15:00	705	UR75 awe	170	4926	axe
060909	15:00	705	JSLH46	171	6072	1
060909	15:00	705	LH46 submarine	172	10431	submarine
060909	15:00	705	JSLH17	173	3457	6
060909	15:00	705	LH17 life	174	1563	life
060909	15:00	705	JSUR21	175	2399	9
060909	15:00	705	UR21 ore	176	6455	red
060909	15:00	705	JSUR17	177	2799	4
060909	15:00	705	UR17 trance	178	3520	trance
060909	15:00	705	JSUR98	179	3193	5
060909	15:00	705	UR98 latch	180	2686	lava
060909	15:00	705	JSHL36	181	2433	1
060909	15:00	705	HL36 football	182	2489	football
060909	15:00	705	JSHL32	183	2428	1
060909	15:00	705	HL32 television	184	3600	television
060909	15:00	705	JSLH19	185	3006	2
060909	15:00	705	LH19 snob	186	2987	snob
060909	15:00	705	JSHL51	187	2122	7
060909	15:00	705	HL51 color	188	1798	color
060909	15:00	705	JSHL50	189	2721	6
060909	15:00	705	HL50 doctor	190	3051	doctor
060909	15:00	705	JSUR53	191	2254	4
060909	15:00	705	UR53 hell	192	3893	hem
060909	15:00	705	JSUR87	193	2084	5
060909	15:00	705	UR87 duty	194	4050	dwarf
060909	15:00	705	JSHL25	195	2618	7
060909	15:00	705	HL25 cut	196	1488	cut
060909	15:00	705	JSHL14	197	4856	5
060909	15:00	705	HL14 milk	198	6444	milk
060909	15:00	705	JSHL10	199	4068	8
060909	15:00	705	HL10 cow	200	1435	cow
060909	15:00	705	JSUR01	201	6765	3
060909	15:00	705	UR01 file	202	1519	file
060909	15:00	705	JSUR55	203	3117	6
060909	15:00	705	UR55 bargain	204	3014	bargain
060909	15:00	705	JSUR07	205	3163	6
060909	15:00	705	UR07 gathering	206	5594	gathering
060909	15:00	705	JSUR74	207	3790	4
060909	15:00	705	UR74 suitcase	208	2858	suitcase
060909	15:00	705	JSUR34	209	6886	7
060909	15:00	705	UR34 charity	210	3330	chart
060909	15:00	705	JSLH54	211	3361	8
060909	15:00	705	LH54 limit	212	2009	limit
060909	15:00	705	JSUR54	213	2468	4
060909	15:00	705	UR54 steam	214	2321	steam
060909	15:00	705	JSUR24	215	2365	9
060909	15:00	705	UR24 kid	216	1966	kid
060909	15:00	705	JAPR26	1	13458	1
060909	15:00	705	PR26 colonel	2	5063	calogne
060909	15:00	705	JAPR24	3	9555	5
060909	15:00	705	PR24 pest	4	3011	pest
060909	15:00	705	JAPR08	5	4632	9
060909	15:00	705	PR08 beef	6	2094	beef
060909	15:00	705	JAPR05	7	3539	7
060909	15:00	705	PR05 calf	8	1938	calf
060909	15:00	705	JAPR14	9	6662	5
060909	15:00	705	PR14 religion	10	2596	religion
060909	15:00	705	JAPR19	11	3883	7
060909	15:00	705	PR19 void	12	2666	void
060909	15:00	705	JAPR12	13	5007	9
060909	15:00	705	PR12 royalty	14	11228	royalty
060909	15:00	705	JAPR02	15	5579	4
060909	15:00	705	PR02 wrinkle	16	2512	wrinkle
060909	15:00	705	JAPR10	17	9435	5
060909	15:00	705	PR10 camel	18	3024	camel
060909	15:00	705	JAPR15	19	3469	7
060909	15:00	705	PR15 depletion	20	6062	depletion
060909	15:00	705	JAPR20	21	6278	8
060909	15:00	705	PR20 advertisement	22	4797	advertisement
060909	15:00	705	JAPR29	23	6013	5
060909	15:00	705	PR29 mermaid	24	2439	mermaid
060909	15:00	705	JAPR16	25	3438	8
060909	15:00	705	PR16 compulsion	26	4152	compulsion
060909	15:00	705	JAPR22	27	3116	9
060909	15:00	705	PR22 ass	28	13156	asfault
060909	15:00	705	JAUR43	1	7307	7
060909	15:00	705	UR43 balloon	2	3613	ballot
060909	15:00	705	JAUR102	3	9672	3
060909	15:00	705	UR102 velocity	4	2634	victory
060909	15:00	705	JAHL08	5	3496	7
060909	15:00	705	HL08 math	6	1376	math
060909	15:00	705	JALH13	7	6060	8
060909	15:00	705	LH13 crease	8	9012	steam
060909	15:00	705	JALH08	9	4532	6
060909	15:00	705	LH08 house	10	1518	house
060909	15:00	705	JAUR71	11	4013	7
060909	15:00	705	UR71 padding	12	2966	pudding
060909	15:00	705	JAUR25	13	2654	9
060909	15:00	705	UR25 partner	14	3659	partner
060909	15:00	705	JALH47	15	2316	6
060909	15:00	705	LH47 detergent	16	3504	detergent
060909	15:00	705	JALH36	17	3824	9
060909	15:00	705	LH36 gang	18	1641	gang
060909	15:00	705	JAHL15	19	2787	9
060909	15:00	705	HL15 bomb	20	2018	bomb
060909	15:00	705	JAUR84	21	3235	7
060909	15:00	705	UR84 flag	22	2150	flag
060909	15:00	705	JAHL29	23	4649	9
060909	15:00	705	HL29 ring	24	1383	ring
060909	15:00	705	JALH29	25	7003	3
060909	15:00	705	LH29 closet	26	2266	closet
060909	15:00	705	JALH52	27	3888	8
060909	15:00	705	LH52 bureau	28	9039	bureau
060909	15:00	705	JALH48	29	3046	4
060909	15:00	705	LH48 outcome	30	1897	outcome
060909	15:00	705	JAUR29	31	4231	3
060909	15:00	705	UR29 patrol	32	2455	patrol
060909	15:00	705	JALH28	33	5413	8
060909	15:00	705	LH28 vagrant	34	12681	vain
060909	15:00	705	JAHL52	35	3960	3
060909	15:00	705	HL52 sand	36	2132	sand
060909	15:00	705	JAHL44	37	2688	8
060909	15:00	705	HL44 baseball	38	2196	baseball
060909	15:00	705	JAUR37	39	6084	5
060909	15:00	705	UR37 cloth	40	1676	cloth
060909	15:00	705	JAUR81	41	10779	10
060909	15:00	705	UR81 acid	42	2357	acid
060909	15:00	705	JAUR88	43	4175	8
060909	15:00	705	UR88 circus	44	6089	circus
060909	15:00	705	JALH34	45	2256	9
060909	15:00	705	LH34 panel	46	1950	panel
060909	15:00	705	JAHL54	47	3546	8
060909	15:00	705	HL54 indian	48	6432	indecent
060909	15:00	705	JAUR48	49	2568	9
060909	15:00	705	UR48 democracy	50	2768	democracy
060909	15:00	705	JAUR40	51	3504	7
060909	15:00	705	UR40 dancer	52	2360	dancer
060909	15:00	705	JAHL38	53	2034	9
060909	15:00	705	HL38 boat	54	2098	boat
060909	15:00	705	JALH18	55	4127	8
060909	15:00	705	LH18 edge	56	1766	edge
060909	15:00	705	JAUR89	57	5980	4
060909	15:00	705	UR89 crow	58	2127	cross
060909	15:00	705	JAUR18	59	3515	9
060909	15:00	705	UR18 relief	60	2402	relief
060909	15:00	705	JAUR80	61	3042	8
060909	15:00	705	UR80 antique	62	2430	antique
060909	15:00	705	JAUR15	63	3157	8
060909	15:00	705	UR15 compass	64	4452	compass
060909	15:00	705	JAUR08	65	3938	4
060909	15:00	705	UR08 assistant	66	4871	assist
060909	15:00	705	JAUR94	67	4611	8
060909	15:00	705	UR94 bristle	68	4642	brief
060909	15:00	705	JAUR61	69	1953	8
060909	15:00	705	UR61 suicide	70	5684	swiss
060909	15:00	705	JAUR05	71	4045	5
060909	15:00	705	UR05 lease	72	1918	lease
060909	15:00	705	JAHL28	73	2827	7
060909	15:00	705	HL28 bird	74	1776	bird
060909	15:00	705	JAUR73	75	2187	9
060909	15:00	705	UR73 kite	76	2997	kite
060909	15:00	705	JAUR79	77	5338	4
060909	15:00	705	UR79 beetle	78	3250	beet
060909	15:00	705	JAUR31	79	4837	7
060909	15:00	705	UR31 diameter	80	5682	diameter
060909	15:00	705	JAUR26	81	2147	7
060909	15:00	705	UR26 eternity	82	2438	eternity
060909	15:00	705	JALH21	83	3765	5
060909	15:00	705	LH21 monument	84	4017	monument
060909	15:00	705	JAHL48	85	3570	8
060909	15:00	705	HL48 airplane	86	2815	airplane
060909	15:00	705	JALH10	87	2525	7
060909	15:00	705	LH10 care	88	7167	cliff
060909	15:00	705	JALH31	89	2247	3
060909	15:00	705	LH31 self	90	1678	self
060909	15:00	705	JAUR38	91	2781	6
060909	15:00	705	UR38 energy	92	4348	enemy
060909	15:00	705	JAUR86	93	3871	4
060909	15:00	705	UR86 boulevard	94	4471	boulevard
060909	15:00	705	JAUR90	95	3244	6
060909	15:00	705	UR90 sailing	96	10463	sale
060909	15:00	705	JAHL30	97	1959	8
060909	15:00	705	HL30 air	98	1314	air
060909	15:00	705	JAUR57	99	4922	6
060909	15:00	705	UR57 benefit	100	2771	benefit
060909	15:00	705	JALH12	101	2675	6
060909	15:00	705	LH12 addition	102	2271	addition
060909	15:00	705	JAHL04	103	3469	5
060909	15:00	705	HL04 beer	104	1654	beer
060909	15:00	705	JAUR11	105	5191	3
060909	15:00	705	UR11 foundation	106	3373	foundation
060909	15:00	705	JALH33	107	2219	6
060909	15:00	705	LH33 fable	108	2371	fable
060909	15:00	705	JAHL11	109	2796	6
060909	15:00	705	HL11 rock	110	1371	rock
060909	15:00	705	JALH06	111	2712	7
060909	15:00	705	LH06 element	112	3706	element
060909	15:00	705	JAHL37	113	3481	6
060909	15:00	705	HL37 thread	114	3065	thread
060909	15:00	705	JALH44	115	2444	8
060909	15:00	705	LH44 vessel	116	2634	vessel
060909	15:00	705	JALH39	117	3496	7
060909	15:00	705	LH39 reward	118	5336	reward
060909	15:00	705	JALH49	119	5160	9
060909	15:00	705	LH49 kindness	120	3463	kindness
060909	15:00	705	JAUR39	121	2288	8
060909	15:00	705	UR39 faith	122	1922	faith
060909	15:00	705	JAUR33	123	2248	4
060909	15:00	705	UR33 horror	124	2607	horror
060909	15:00	705	JAUR02	125	2686	7
060909	15:00	705	UR02 comma	126	2658	comma
060909	15:00	705	JAUR93	127	2895	6
060909	15:00	705	UR93 catcher	128	2225	catcher
060909	15:00	705	JAHL19	129	3408	5
060909	15:00	705	HL19 car	130	1805	car
060909	15:00	705	JAUR49	131	2351	8
060909	15:00	705	UR49 casket	132	3337	cashier
060909	15:00	705	JAHL35	133	2552	7
060909	15:00	705	HL35 cake	134	1394	cake
060909	15:00	705	JAUR44	135	3630	5
060909	15:00	705	UR44 rot	136	1336	rot
060909	15:00	705	JAUR91	137	2927	9
060909	15:00	705	UR91 anteater	138	3447	anteater
060909	15:00	705	JAHL46	139	2417	2
060909	15:00	705	HL46 butter	140	2033	butter
060909	15:00	705	JAUR09	141	2257	8
060909	15:00	705	UR09 education	142	6631	education
060909	15:00	705	JAUR83	143	2182	9
060909	15:00	705	UR83 lesson	144	1904	lesson
060909	15:00	705	JAHL18	145	2877	6
060909	15:00	705	HL18 paper	146	1344	paper
060909	15:00	705	JALH16	147	2198	4
060909	15:00	705	LH16 power	148	1839	power
060909	15:00	705	JAHL06	149	4391	1
060909	15:00	705	HL06 egg	150	1545	egg
060909	15:00	705	JAHL20	151	1934	8
060909	15:00	705	HL20 wine	152	1506	wine
060909	15:00	705	JAHL26	153	3225	2
060909	15:00	705	HL26 light	154	1373	light
060909	15:00	705	JALH42	155	5146	6
060909	15:00	705	LH42 thought	156	2338	thought
060909	15:00	705	JAUR41	157	2821	6
060909	15:00	705	UR41 chime	158	3581	chime
060909	15:00	705	JAPR18	159	3124	1
060909	15:00	705	PR18 clorox	160	3237	clear
060909	15:00	705	JALH35	161	2496	8
060909	15:00	705	LH35 shelter	162	3892	shelter
060909	15:00	705	JAUR16	163	2075	7
060909	15:00	705	UR16 century	164	2353	century
060909	15:00	705	JAUR108	165	2827	9
060909	15:00	705	UR108 shield	166	4752	shield
060909	15:00	705	JAHL12	167	1641	9
060909	15:00	705	HL12 space	168	1874	space
060909	15:00	705	JAUR23	169	3897	4
060909	15:00	705	UR23 abundance	170	3295	abundance
060909	15:00	705	JAUR104	171	2320	9
060909	15:00	705	UR104 aardvark	172	3876	aardvark
060909	15:00	705	JAUR56	173	2483	8
060909	15:00	705	UR56 antler	174	2912	antler
060909	15:00	705	JAHL16	175	5625	10
060909	15:00	705	HL16 broom	176	2316	broom
060909	15:00	705	JAHL40	177	3296	9
060909	15:00	705	HL40 temperature	178	5536	temperature
060909	15:00	705	JAUR101	179	2367	1
060909	15:00	705	UR101 beard	180	2569	beard
060909	15:00	705	JALH45	181	2090	9
060909	15:00	705	LH45 intellect	182	3119	intelligence
060909	15:00	705	JAUR92	183	2112	4
060909	15:00	705	UR92 dart	184	2324	dark
060909	15:00	705	JAUR19	185	1847	9
060909	15:00	705	UR19 bison	186	2463	wisdom
060909	15:00	705	JAUR99	187	3068	7
060909	15:00	705	UR99 branch	188	2103	branch
060909	15:00	705	JAUR10	189	1884	1
060909	15:00	705	UR10 tribe	190	1787	tribe
060909	15:00	705	JAUR72	191	1998	6
060909	15:00	705	UR72 band	192	1704	band
060909	15:00	705	JAUR100	193	2046	9
060909	15:00	705	UR100 comb	194	1838	code
060909	15:00	705	JALH26	195	2151	4
060909	15:00	705	LH26 center	196	1914	center
060909	15:00	705	JAUR03	197	4119	5
060909	15:00	705	UR03 vehicle	198	8428	vehicle
060909	15:00	705	JAHL22	199	3365	7
060909	15:00	705	HL22 problem	200	2163	problem
060909	15:00	705	JALH15	201	1821	9
060909	15:00	705	LH15 blessing	202	2422	blessing
060909	15:00	705	JAHL27	203	2365	8
060909	15:00	705	HL27 rain	204	5279	rain
060909	15:00	705	JAHL02	205	2529	7
060909	15:00	705	HL02 flower	206	2003	flower
060909	15:00	705	JALH41	207	6261	4
060909	15:00	705	LH41 girl	208	1700	girl
060909	15:00	705	JAHL13	209	2147	6
060909	15:00	705	HL13 map	210	1502	map
060909	15:00	705	JAUR97	211	2270	5
060909	15:00	705	UR97 banner	212	2347	banner
060909	15:00	705	JALH40	213	2238	6
060909	15:00	705	LH40 field	214	2909	field
060909	15:00	705	JAUR51	215	2407	7
060909	15:00	705	UR51 cabbage	216	7854	cab
060909	15:00	705	JAUR12	217	2112	9
060909	15:00	705	UR12 unicorn	218	7501	utensil

date	time	subject	trialcode	trialnum	latency	response
061509	11:49	706	JAPR17	1	31031	6
061509	11:49	706	PR17 emerald	2	19214	jack
061509	11:49	706	JAPR27	3	9888	10
061509	11:49	706	PR27 wheat	4	5317	what
061509	11:49	706	JAPR07	5	3710	10
061509	11:49	706	PR07 bog	6	5523	dog
061509	11:49	706	JAPR23	7	3992	4
061509	11:49	706	PR23 companion	8	5220	bill
061509	11:49	706	JAPR06	9	3676	10
061509	11:49	706	PR06 beast	10	6124	beast
061509	11:49	706	JAPR09	11	4777	7
061509	11:49	706	PR09 album	12	4213	bell
061509	11:49	706	JAPR21	13	6063	3
061509	11:49	706	PR21 innocence	14	4048	income
061509	11:49	706	JAPR01	15	3850	8
061509	11:49	706	PR01 cash	16	6989	count
061509	11:49	706	JAPR11	17	3433	6
061509	11:49	706	PR11 ounce	18	3688	bounce
061509	11:49	706	JAPR25	19	2842	9
061509	11:49	706	PR25 saliva	20	4560	enter
061509	11:49	706	JAPR30	21	3232	10
061509	11:49	706	PR30 maiden	22	3156	made
061509	11:49	706	JAPR03	23	9658	6
061509	11:49	706	PR03 acre	24	4017	acorn
061509	11:49	706	JAPR13	25	6051	8
061509	11:49	706	PR13 ambition	26	5681	ambition
061509	11:49	706	JAPR04	27	8310	8
061509	11:49	706	PR04 diaper	28	2894	diaper
061509	11:49	706	JAUR53	1	7859	6
061509	11:49	706	UR53 hell	2	2527	hell
061509	11:49	706	JAUR13	3	13590	8
061509	11:49	706	UR13 almanac	4	3018	almond
061509	11:49	706	JAHL07	5	7410	7
061509	11:49	706	HL07 king	6	2562	king
061509	11:49	706	JALH05	7	4799	5
061509	11:49	706	LH05 chain	8	2273	chain
061509	11:49	706	JALH02	9	7666	6
061509	11:49	706	LH02 harm	10	2618	harm
061509	11:49	706	JAUR64	11	14290	1
061509	11:49	706	UR64 fist	12	3506	first
061509	11:49	706	JAUR32	13	8685	7
061509	11:49	706	UR32 navigator	14	35152	number
061509	11:49	706	JALH50	15	5337	4
061509	11:49	706	LH50 measure	16	5768	mean
061509	11:49	706	JALH27	17	5405	1
061509	11:49	706	LH27 condition	18	18586	condo
061509	11:49	706	JAHL17	19	4238	8
061509	11:49	706	HL17 soap	20	2920	soap
061509	11:49	706	JAUR74	21	3599	6
061509	11:49	706	UR74 suitcase	22	3438	sunset
061509	11:49	706	JAHL36	23	6748	2
061509	11:49	706	HL36 football	24	3753	football
061509	11:49	706	JALH20	25	4680	8
061509	11:49	706	LH20 violation	26	4828	victim
061509	11:49	706	JALH54	27	6454	7
061509	11:49	706	LH54 limit	28	8777	summit
061509	11:49	706	JALH51	29	3200	9
061509	11:49	706	LH51 exit	30	3518	exit
061509	11:49	706	JAUR35	31	5261	7
061509	11:49	706	UR35 cause	32	3212	cave
061509	11:49	706	JALH19	33	4013	9
061509	11:49	706	LH19 snob	34	3600	slob
061509	11:49	706	JAHL51	35	6254	6
061509	11:49	706	HL51 color	36	2549	color
061509	11:49	706	JAHL47	37	4527	8
061509	11:49	706	HL47 horse	38	2746	horse
061509	11:49	706	JAUR45	39	4173	10
061509	11:49	706	UR45 bridge	40	5264	bride
061509	11:49	706	JAUR69	41	4126	6
061509	11:49	706	UR69 flashlight	42	4809	flashlight
061509	11:49	706	JAUR76	43	6125	8
061509	11:49	706	UR76 dignity	44	4491	dignity
061509	11:49	706	JALH24	45	3759	7
061509	11:49	706	LH24 feeling	46	3103	feeling
061509	11:49	706	JAHL53	47	2858	8
061509	11:49	706	HL53 fish	48	1956	fish
061509	11:49	706	JAUR55	49	4278	9
061509	11:49	706	UR55 bargain	50	3231	origin
061509	11:49	706	JAUR50	51	5170	7
061509	11:49	706	UR50 crane	52	4127	crime
061509	11:49	706	JAHL43	53	8489	7
061509	11:49	706	HL43 money	54	3188	money
061509	11:49	706	JALH11	55	5919	8
061509	11:49	706	LH11 cancer	56	2434	cancer
061509	11:49	706	JAUR77	57	15894	4
061509	11:49	706	UR77 uncle	58	5307	unit
061509	11:49	706	JAUR27	59	4146	6
061509	11:49	706	UR27 consequence	60	7440	consequence
061509	11:49	706	JAUR68	61	5096	4
061509	11:49	706	UR68 fatigue	62	12596	flood
061509	11:49	706	JAUR22	63	4045	8
061509	11:49	706	UR22 thesaurus	64	7333	player
061509	11:49	706	JAUR07	65	9975	7
061509	11:49	706	UR07 gathering	66	10863	blood
061509	11:49	706	JAUR95	67	2507	6
061509	11:49	706	UR95 fool	68	1741	foot
061509	11:49	706	JAUR63	69	3558	6
061509	11:49	706	UR63 alley	70	4077	allergy
061509	11:49	706	JAUR06	71	4365	5
061509	11:49	706	UR06 cello	72	2165	heat
061509	11:49	706	JAHL34	73	3473	4
061509	11:49	706	HL34 hunger	74	2536	hunger
061509	11:49	706	JAUR66	75	3328	6
061509	11:49	706	UR66 chief	76	4268	chief
061509	11:49	706	JAUR67	77	4882	2
061509	11:49	706	UR67 producer	78	7556	producer
061509	11:49	706	JAUR36	79	9713	2
061509	11:49	706	UR36 denim	80	2867	denim
061509	11:49	706	JAUR34	81	3006	8
061509	11:49	706	UR34 charity	82	2532	chart
061509	11:49	706	JALH14	83	3371	3
061509	11:49	706	LH14 note	84	4429	note
061509	11:49	706	JAHL50	85	7938	8
061509	11:49	706	HL50 doctor	86	4271	doctor
061509	11:49	706	JALH03	87	3366	5
061509	11:49	706	LH03 yard	88	2165	yard
061509	11:49	706	JALH22	89	4753	4
061509	11:49	706	LH22 crowd	90	2619	crowd
061509	11:49	706	JAUR46	91	5474	6
061509	11:49	706	UR46 content	92	21260	count
061509	11:49	706	JAUR75	93	3261	5
061509	11:49	706	UR75 awe	94	4857	log
061509	11:49	706	JAUR78	95	3607	6
061509	11:49	706	UR78 blender	96	2521	blender
061509	11:49	706	JAHL39	97	2493	7
061509	11:49	706	HL39 book	98	2174	bood
061509	11:49	706	JAUR62	99	5948	5
061509	11:49	706	UR62 chemistry	100	3573	chemistry
061509	11:49	706	JALH04	101	3246	4
061509	11:49	706	LH04 grade	102	2437	grade
061509	11:49	706	JAHL03	103	4585	8
061509	11:49	706	HL03 cigarette	104	6800	cigarette
061509	11:49	706	JAUR20	105	3399	2
061509	11:49	706	UR20 climax	106	3438	climate
061509	11:49	706	JALH23	107	5964	6
061509	11:49	706	LH23 possibility	108	4074	possibility
061509	11:49	706	JAHL09	109	4953	9
061509	11:49	706	HL09 chalk	110	2187	chalk
061509	11:49	706	JALH01	111	2364	9
061509	11:49	706	LH01 brain	112	5634	library
061509	11:49	706	JAHL42	113	3020	8
061509	11:49	706	HL42 pie	114	2309	pie
061509	11:49	706	JALH43	115	3566	3
061509	11:49	706	LH43 noise	116	4344	noise
061509	11:49	706	JALH30	117	1901	6
061509	11:49	706	LH30 assignment	118	3557	assignment
061509	11:49	706	JALH53	119	3179	6
061509	11:49	706	LH53 core	120	2484	cost
061509	11:49	706	JAUR47	121	6417	8
061509	11:49	706	UR47 chimpanzee	122	5450	chimney
061509	11:49	706	JAUR42	123	3455	5
061509	11:49	706	UR42 sergeant	124	3073	sergent
061509	11:49	706	JAUR01	125	4168	8
061509	11:49	706	UR01 file	126	2283	file
061509	11:49	706	JAUR87	127	3199	4
061509	11:49	706	UR87 duty	128	3822	dwarf
061509	11:49	706	JAHL24	129	3594	7
061509	11:49	706	HL24 eye	130	2377	eye
061509	11:49	706	JAUR58	131	3392	8
061509	11:49	706	UR58 answer	132	4005	answer
061509	11:49	706	JAHL41	133	3750	5
061509	11:49	706	HL41 hand	134	1859	hand
061509	11:49	706	JAUR54	135	2738	7
061509	11:49	706	UR54 steam	136	7026	come
061509	11:49	706	JAUR82	137	4694	7
061509	11:49	706	UR82 campus	138	2322	camp
061509	11:49	706	JAHL49	139	3887	5
061509	11:49	706	HL49 spice	140	2281	spice
061509	11:49	706	JAUR103	141	3501	8
061509	11:49	706	UR103 hula	142	5533	laugh
061509	11:49	706	JAUR70	143	2086	3
061509	11:49	706	UR70 pajamas	144	9858	pot
061509	11:49	706	JAHL23	145	7729	6
061509	11:49	706	HL23 baby	146	2194	baby
061509	11:49	706	JALH09	147	3926	3
061509	11:49	706	LH09 piece	148	3113	paper
061509	11:49	706	JAHL05	149	8151	3
061509	11:49	706	HL05 mountain	150	2830	mountain
061509	11:49	706	JAHL25	151	3488	3
061509	11:49	706	HL25 cut	152	4890	cook
061509	11:49	706	JAHL32	153	10734	4
061509	11:49	706	HL32 television	154	6641	telephone
061509	11:49	706	JALH38	155	5497	4
061509	11:49	706	LH38 paint	156	7129	pants
061509	11:49	706	JAUR52	157	4800	7
061509	11:49	706	UR52 knight	158	2722	king ht
061509	11:49	706	JAPR28	159	2383	5
061509	11:49	706	PR28 challenge	160	3689	challenge
061509	11:49	706	JALH25	161	5451	8
061509	11:49	706	LH25 track	162	2720	track
061509	11:49	706	JAUR24	163	5181	6
061509	11:49	706	UR24 kid	164	1884	kid
061509	11:49	706	JAUR17	165	3136	8
061509	11:49	706	UR17 trance	166	2670	trace
061509	11:49	706	JAHL10	167	2946	6
061509	11:49	706	HL10 cow	168	1390	cow
061509	11:49	706	JAUR30	169	3470	4
061509	11:49	706	UR30 lover	170	7298	love
061509	11:49	706	JAUR14	171	2796	8
061509	11:49	706	UR14 fudge	172	2874	judge
061509	11:49	706	JAUR60	173	1896	4
061509	11:49	706	UR60 plaque	174	4303	play
061509	11:49	706	JAHL21	175	4428	4
061509	11:49	706	HL21 empire	176	2610	empire
061509	11:49	706	JAHL45	177	2121	6
061509	11:49	706	HL45 words	178	1982	word
061509	11:49	706	JAUR107	179	5303	9
061509	11:49	706	UR107 cocaine	180	2847	cocaine
061509	11:49	706	JALH46	181	4727	4
061509	11:49	706	LH46 submarine	182	2811	superman
061509	11:49	706	JAUR85	183	4794	2
061509	11:49	706	UR85 stroke	184	6188	tree
061509	11:49	706	JAUR28	185	5271	8
061509	11:49	706	UR28 bang	186	3721	gang
061509	11:49	706	JAUR98	187	2640	1
061509	11:49	706	UR98 latch	188	2958	launch
061509	11:49	706	JAUR105	189	6507	1
061509	11:49	706	UR105 curtain	190	6469	writing
061509	11:49	706	JAUR65	191	1704	9
061509	11:49	706	UR65 checkers	192	3098	cracker
061509	11:49	706	JAUR106	193	5090	7
061509	11:49	706	UR106 eagle	194	6079	ring
061509	11:49	706	JALH17	195	2049	7
061509	11:49	706	LH17 life	196	2569	life
061509	11:49	706	JAUR04	197	2120	8
061509	11:49	706	UR04 marsh	198	2496	marsh
061509	11:49	706	JAHL31	199	3648	6
061509	11:49	706	HL31 war	200	1451	war
061509	11:49	706	JALH07	201	3912	5
061509	11:49	706	LH07 rear	202	2117	rear
061509	11:49	706	JAHL33	203	2057	7
061509	11:49	706	HL33 joke	204	1777	joke
061509	11:49	706	JAHL01	205	5215	6
061509	11:49	706	HL01 elephant	206	3155	elephant
061509	11:49	706	JALH37	207	5897	5
061509	11:49	706	LH37 pad	208	1946	pain
061509	11:49	706	JAHL14	209	4171	7
061509	11:49	706	HL14 milk	210	2190	milk
061509	11:49	706	JAUR96	211	6751	6
061509	11:49	706	UR96 dessert	212	3009	desert
061509	11:49	706	JALH32	213	4011	6
061509	11:49	706	LH32 capacity	214	3341	party
061509	11:49	706	JAUR59	215	2185	8
061509	11:49	706	UR59 copper	216	8283	copy
061509	11:49	706	JAUR21	217	2332	7
061509	11:49	706	UR21 ore	218	10380	or
061509	11:49	706	JSPR26	1	12987	5
061509	11:49	706	PR26 colonel	2	4355	smell
061509	11:49	706	JSPR24	3	6314	3
061509	11:49	706	PR24 pest	4	2254	pet
061509	11:49	706	JSPR08	5	4365	9
061509	11:49	706	PR08 beef	6	2601	beer
061509	11:49	706	JSPR05	7	3453	9
061509	11:49	706	PR05 calf	8	3823	half
061509	11:49	706	JSPR14	9	7163	7
061509	11:49	706	PR14 religion	10	3788	revenge
061509	11:49	706	JSPR19	11	4576	8
061509	11:49	706	PR19 void	12	2772	word
061509	11:49	706	JSPR12	13	3675	8
061509	11:49	706	PR12 royalty	14	2987	royalty
061509	11:49	706	JSPR02	15	8702	6
061509	11:49	706	PR02 wrinkle	16	4835	sunday
061509	11:49	706	JSPR10	17	4732	4
061509	11:49	706	PR10 camel	18	2976	camel
061509	11:49	706	JSPR15	19	4688	6
061509	11:49	706	PR15 depletion	20	3820	deordant
061509	11:49	706	JSPR20	21	3336	5
061509	11:49	706	PR20 advertisement	22	3922	advertisement
061509	11:49	706	JSPR29	23	2705	9
061509	11:49	706	PR29 mermaid	24	4860	space
061509	11:49	706	JSPR16	25	3322	7
061509	11:49	706	PR16 compulsion	26	8337	complament
061509	11:49	706	JSPR22	27	3389	6
061509	11:49	706	PR22 ass	28	4545	road
061509	11:49	706	JSPR18	29	4687	3
061509	11:49	706	PR18 clorox	30	2459	cloud
061509	11:49	706	JSUR33	1	2422	7
061509	11:49	706	UR33 horror	2	11032	home
061509	11:49	706	JSUR41	3	2406	7
061509	11:49	706	UR41 chime	4	6529	cold
061509	11:49	706	JSLH06	5	3729	9
061509	11:49	706	LH06 element	6	3035	element
061509	11:49	706	JSHL40	7	2536	7
061509	11:49	706	HL40 temperature	8	3985	temperature
061509	11:49	706	JSLH10	9	2205	8
061509	11:49	706	LH10 care	10	2018	care
061509	11:49	706	JSHL16	11	2817	10
061509	11:49	706	HL16 broom	12	2785	broom
061509	11:49	706	JSLH42	13	3756	6
061509	11:49	706	LH42 thought	14	11707	part
061509	11:49	706	JSLH44	15	7984	4
061509	11:49	706	LH44 vessel	16	2692	vessel
061509	11:49	706	JSLH41	17	2540	9
061509	11:49	706	LH41 girl	18	2580	girl
061509	11:49	706	JSHL08	19	3014	10
061509	11:49	706	HL08 math	20	1791	math
061509	11:49	706	JSHL30	21	6624	2
061509	11:49	706	HL30 air	22	7026	anger
061509	11:49	706	JSLH34	23	2102	8
061509	11:49	706	LH34 panel	24	2008	panel
061509	11:49	706	JSHL37	25	2695	8
061509	11:49	706	HL37 thread	26	2367	thread
061509	11:49	706	JSUR23	27	3494	8
061509	11:49	706	UR23 abundance	28	6352	absent
061509	11:49	706	JSUR94	29	4411	6
061509	11:49	706	UR94 bristle	30	3551	basket
061509	11:49	706	JSLH29	31	2259	7
061509	11:49	706	LH29 closet	32	2626	closet
061509	11:49	706	JSUR97	33	2508	8
061509	11:49	706	UR97 banner	34	3951	buffet
061509	11:49	706	JSUR73	35	3094	7
061509	11:49	706	UR73 kite	36	4767	knife
061509	11:49	706	JSHL15	37	2203	9
061509	11:49	706	HL15 bomb	38	1872	bomb
061509	11:49	706	JSUR05	39	3824	7
061509	11:49	706	UR05 lease	40	5053	levee
061509	11:49	706	JSLH40	41	2849	8
061509	11:49	706	LH40 field	42	7546	location
061509	11:49	706	JSUR09	43	1799	7
061509	11:49	706	UR09 education	44	3708	education
061509	11:49	706	JSHL18	45	6736	8
061509	11:49	706	HL18 paper	46	2746	paper
061509	11:49	706	JSUR61	47	2476	5
061509	11:49	706	UR61 suicide	48	4074	pawm
061509	11:49	706	JSLH18	49	4649	7
061509	11:49	706	LH18 edge	50	2808	song
061509	11:49	706	JSHL04	51	2809	7
061509	11:49	706	HL04 beer	52	1802	beer
061509	11:49	706	JSUR19	53	2365	8
061509	11:49	706	UR19 bison	54	9490	religion
061509	11:49	706	JSLH12	55	4152	6
061509	11:49	706	LH12 addition	56	2889	addition
061509	11:49	706	JSHL02	57	2089	7
061509	11:49	706	HL02 flower	58	2309	flower
061509	11:49	706	JSLH36	59	2031	8
061509	11:49	706	LH36 gang	60	2977	judge
061509	11:49	706	JSLH48	61	3761	6
061509	11:49	706	LH48 outcome	62	5713	outcome
061509	11:49	706	JSLH15	63	1883	7
061509	11:49	706	LH15 blessing	64	3711	blessing
061509	11:49	706	JSHL35	65	1590	6
061509	11:49	706	HL35 cake	66	1903	cake
061509	11:49	706	JSUR40	67	2872	7
061509	11:49	706	UR40 dancer	68	5779	dirty
061509	11:49	706	JSUR88	69	3035	6
061509	11:49	706	UR88 circus	70	15081	0
061509	11:49	706	JSUR81	71	2537	6
061509	11:49	706	UR81 acid	72	3313	bid
061509	11:49	706	JSUR92	73	1991	8
061509	11:49	706	UR92 dart	74	4033	dark
061509	11:49	706	JSHL44	75	1641	7
061509	11:49	706	HL44 baseball	76	4989	baseball
061509	11:49	706	JSHL46	77	1987	7
061509	11:49	706	HL46 butter	78	2141	butter
061509	11:49	706	JSUR15	79	4662	7
061509	11:49	706	UR15 compass	80	4605	compose
061509	11:49	706	JSLH35	81	2823	8
061509	11:49	706	LH35 shelter	82	3611	shelter
061509	11:49	706	JSUR91	83	5324	5
061509	11:49	706	UR91 anteater	84	9513	anotter
061509	11:49	706	JSLH08	85	4722	7
061509	11:49	706	LH08 house	86	2419	house
061509	11:49	706	JSLH21	87	2082	6
061509	11:49	706	LH21 monument	88	6239	monument
061509	11:49	706	JSUR83	89	1698	6
061509	11:49	706	UR83 lesson	90	2433	second
061509	11:49	706	JSHL22	91	2227	4
061509	11:49	706	HL22 problem	92	2781	problem
061509	11:49	706	JSLH47	93	3671	6
061509	11:49	706	LH47 detergent	94	3060	detergent
061509	11:49	706	JSUR56	95	4375	4
061509	11:49	706	UR56 antler	96	3826	anger
061509	11:49	706	JSUR80	97	2591	9
061509	11:49	706	UR80 antique	98	6370	antique
061509	11:49	706	JSUR11	99	5952	5
061509	11:49	706	UR11 foundation	100	2491	freedom
061509	11:49	706	JSHL11	101	4138	7
061509	11:49	706	HL11 rock	102	2981	pencil
061509	11:49	706	JSLH16	103	2008	6
061509	11:49	706	LH16 power	104	3605	power
061509	11:49	706	JSUR18	105	3046	7
061509	11:49	706	UR18 relief	106	7460	lane
061509	11:49	706	JSLH39	107	2223	9
061509	11:49	706	LH39 reward	108	2393	reward
061509	11:49	706	JSUR79	109	3315	6
061509	11:49	706	UR79 beetle	110	3610	beet
061509	11:49	706	JSUR102	111	2443	8
061509	11:49	706	UR102 velocity	112	5776	clarity
061509	11:49	706	JSUR101	113	4040	6
061509	11:49	706	UR101 beard	114	1872	baked
061509	11:49	706	JSUR72	115	2689	7
061509	11:49	706	UR72 band	116	6041	band
061509	11:49	706	JSUR51	117	5575	6
061509	11:49	706	UR51 cabbage	118	3732	taxi
061509	11:49	706	JSHL54	119	2494	6
061509	11:49	706	HL54 indian	120	2526	indian
061509	11:49	706	JSUR39	121	2818	7
061509	11:49	706	UR39 faith	122	3581	faith
061509	11:49	706	JSUR49	123	1547	6
061509	11:49	706	UR49 casket	124	7516	casket
061509	11:49	706	JSLH49	125	3889	6
061509	11:49	706	LH49 kindness	126	3276	kindness
061509	11:49	706	JSUR10	127	3498	3
061509	11:49	706	UR10 tribe	128	3107	walk
061509	11:49	706	JSHL06	129	3902	6
061509	11:49	706	HL06 egg	130	1468	egg
061509	11:49	706	JSUR71	131	2956	7
061509	11:49	706	UR71 padding	132	3130	pudding
061509	11:49	706	JSUR25	133	1802	6
061509	11:49	706	UR25 partner	134	4703	partner
061509	11:49	706	JSUR03	135	2764	9
061509	11:49	706	UR03 vehicle	136	3250	vehicle
061509	11:49	706	JSHL28	137	2811	6
061509	11:49	706	HL28 bird	138	1788	bird
061509	11:49	706	JSUR100	139	2652	7
061509	11:49	706	UR100 comb	140	3821	count
061509	11:49	706	JSUR89	141	1945	6
061509	11:49	706	UR89 crow	142	4315	child
061509	11:49	706	JSUR29	143	4506	4
061509	11:49	706	UR29 patrol	144	6433	part
061509	11:49	706	JSHL38	145	3068	5
061509	11:49	706	HL38 boat	146	3088	bark
061509	11:49	706	JSLH33	147	4664	5
061509	11:49	706	LH33 fable	148	2255	fable
061509	11:49	706	JSUR31	149	3085	7
061509	11:49	706	UR31 diameter	150	2420	smoke
061509	11:49	706	JSHL19	151	6086	4
061509	11:49	706	HL19 car	152	1724	car
061509	11:49	706	JSLH31	153	3471	3
061509	11:49	706	LH31 self	154	1860	self
061509	11:49	706	JSLH13	155	1938	7
061509	11:49	706	LH13 crease	156	5873	mend
061509	11:49	706	JSUR37	157	5916	5
061509	11:49	706	UR37 cloth	158	2975	cloth
061509	11:49	706	JSHL27	159	2495	6
061509	11:49	706	HL27 rain	160	4143	rain
061509	11:49	706	JSUR104	161	3948	7
061509	11:49	706	UR104 aardvark	162	2961	aardvark
061509	11:49	706	JSUR38	163	3823	8
061509	11:49	706	UR38 energy	164	4860	energy
061509	11:49	706	JSUR90	165	1930	6
061509	11:49	706	UR90 sailing	166	5577	sale
061509	11:49	706	JSUR57	167	3480	3
061509	11:49	706	UR57 benefit	168	3663	benefit
061509	11:49	706	JSUR86	169	2875	6
061509	11:49	706	UR86 boulevard	170	6025	building
061509	11:49	706	JSLH45	171	2081	7
061509	11:49	706	LH45 intellect	172	6126	0
061509	11:49	706	JSLH26	173	3628	7
061509	11:49	706	LH26 center	174	9568	 center
061509	11:49	706	JSUR12	175	1767	7
061509	11:49	706	UR12 unicorn	176	3587	unicorn
061509	11:49	706	JSUR108	177	2591	6
061509	11:49	706	UR108 shield	178	5458	shoe
061509	11:49	706	JSUR99	179	2009	6
061509	11:49	706	UR99 branch	180	4165	branch
061509	11:49	706	JSHL29	181	2007	5
061509	11:49	706	HL29 ring	182	5764	building
061509	11:49	706	JSHL26	183	4233	7
061509	11:49	706	HL26 light	184	2666	light
061509	11:49	706	JSLH28	185	6140	6
061509	11:49	706	LH28 vagrant	186	7101	varment
061509	11:49	706	JSHL52	187	2383	6
061509	11:49	706	HL52 sand	188	2057	sand
061509	11:49	706	JSHL48	189	2384	8
061509	11:49	706	HL48 airplane	190	3562	airplane
061509	11:49	706	JSUR43	191	1585	6
061509	11:49	706	UR43 balloon	192	3498	ballroom
061509	11:49	706	JSUR93	193	1683	7
061509	11:49	706	UR93 catcher	194	2959	catcher
061509	11:49	706	JSHL20	195	1116	3
061509	11:49	706	HL20 wine	196	8501	bottle
061509	11:49	706	JSHL13	197	1761	7
061509	11:49	706	HL13 map	198	1293	map
061509	11:49	706	JSHL12	199	2362	9
061509	11:49	706	HL12 space	200	1904	space
061509	11:49	706	JSUR02	201	1481	6
061509	11:49	706	UR02 comma	202	2124	comma
061509	11:49	706	JSUR48	203	2736	6
061509	11:49	706	UR48 democracy	204	3569	democracy
061509	11:49	706	JSUR08	205	1546	6
061509	11:49	706	UR08 assistant	206	2667	assistant
061509	11:49	706	JSUR84	207	1581	4
061509	11:49	706	UR84 flag	208	3396	light
061509	11:49	706	JSUR26	209	2362	7
061509	11:49	706	UR26 eternity	210	5535	ethnicity
061509	11:49	706	JSLH52	211	1894	6
061509	11:49	706	LH52 bureau	212	4205	bureau
061509	11:49	706	JSUR44	213	2024	4
061509	11:49	706	UR44 rot	214	1386	red
061509	11:49	706	JSUR16	215	3929	7
061509	11:49	706	UR16 century	216	2812	century

date	time	subject	trialcode	trialnum	latency	response
061509	09:53	709	JAPR17	1	15064	1
061509	09:53	709	PR17 emerald	2	15917	emerald
061509	09:53	709	JAPR27	3	5076	5
061509	09:53	709	PR27 wheat	4	9516	home
061509	09:53	709	JAPR07	5	6650	2
061509	09:53	709	PR07 bog	6	6559	second
061509	09:53	709	JAPR23	7	7126	2
061509	09:53	709	PR23 companion	8	21822	germany
061509	09:53	709	JAPR06	9	5599	2
061509	09:53	709	PR06 beast	10	8116	beast
061509	09:53	709	JAPR09	11	7640	2
061509	09:53	709	PR09 album	12	4684	alarm
061509	09:53	709	JAPR21	13	2807	2
061509	09:53	709	PR21 innocence	14	4505	innocent
061509	09:53	709	JAPR01	15	6699	2
061509	09:53	709	PR01 cash	16	4929	cash
061509	09:53	709	JAPR11	17	3156	2
061509	09:53	709	PR11 ounce	18	4051	ounce
061509	09:53	709	JAPR25	19	2989	2
061509	09:53	709	PR25 saliva	20	5092	saliva
061509	09:53	709	JAPR30	21	2186	3
061509	09:53	709	PR30 maiden	22	7921	home
061509	09:53	709	JAPR03	23	3515	2
061509	09:53	709	PR03 acre	24	2978	acre
061509	09:53	709	JAPR13	25	1627	3
061509	09:53	709	PR13 ambition	26	3791	ambition
061509	09:53	709	JAPR04	27	3160	3
061509	09:53	709	PR04 diaper	28	7648	size
061509	09:53	709	JAUR53	1	6759	5
061509	09:53	709	UR53 hell	2	6340	second
061509	09:53	709	JAUR13	3	2795	4
061509	09:53	709	UR13 almanac	4	9980	almanac
061509	09:53	709	JAHL07	5	2906	3
061509	09:53	709	HL07 king	6	2783	king
061509	09:53	709	JALH05	7	2768	4
061509	09:53	709	LH05 chain	8	2419	chair
061509	09:53	709	JALH02	9	3157	4
061509	09:53	709	LH02 harm	10	4575	alarm
061509	09:53	709	JAUR64	11	1719	5
061509	09:53	709	UR64 fist	12	2602	first
061509	09:53	709	JAUR32	13	2911	3
061509	09:53	709	UR32 navigator	14	5266	navigator
061509	09:53	709	JALH50	15	2462	5
061509	09:53	709	LH50 measure	16	3514	measure
061509	09:53	709	JALH27	17	2308	5
061509	09:53	709	LH27 condition	18	4074	condition
061509	09:53	709	JAHL17	19	2111	4
061509	09:53	709	HL17 soap	20	2520	soap
061509	09:53	709	JAUR74	21	2861	5
061509	09:53	709	UR74 suitcase	22	2839	suitcase
061509	09:53	709	JAHL36	23	2006	5
061509	09:53	709	HL36 football	24	2955	football
061509	09:53	709	JALH20	25	1873	5
061509	09:53	709	LH20 violation	26	4032	violation
061509	09:53	709	JALH54	27	1328	6
061509	09:53	709	LH54 limit	28	4285	limit
061509	09:53	709	JALH51	29	1901	4
061509	09:53	709	LH51 exit	30	2783	exit
061509	09:53	709	JAUR35	31	2321	4
061509	09:53	709	UR35 cause	32	1813	cause
061509	09:53	709	JALH19	33	2047	4
061509	09:53	709	LH19 snob	34	3110	snore
061509	09:53	709	JAHL51	35	2090	5
061509	09:53	709	HL51 color	36	1824	color
061509	09:53	709	JAHL47	37	2254	5
061509	09:53	709	HL47 horse	38	2029	horse
061509	09:53	709	JAUR45	39	1679	5
061509	09:53	709	UR45 bridge	40	3190	bridge
061509	09:53	709	JAUR69	41	2366	4
061509	09:53	709	UR69 flashlight	42	2984	color
061509	09:53	709	JAUR76	43	1841	4
061509	09:53	709	UR76 dignity	44	3867	dignity
061509	09:53	709	JALH24	45	2189	4
061509	09:53	709	LH24 feeling	46	2233	feeling
061509	09:53	709	JAHL53	47	1803	4
061509	09:53	709	HL53 fish	48	2601	fish
061509	09:53	709	JAUR55	49	1728	5
061509	09:53	709	UR55 bargain	50	2754	bargain
061509	09:53	709	JAUR50	51	1651	5
061509	09:53	709	UR50 crane	52	6882	control
061509	09:53	709	JAHL43	53	1724	4
061509	09:53	709	HL43 money	54	2319	money
061509	09:53	709	JALH11	55	1562	5
061509	09:53	709	LH11 cancer	56	3103	cancer
061509	09:53	709	JAUR77	57	1979	6
061509	09:53	709	UR77 uncle	58	5656	uncle
061509	09:53	709	JAUR27	59	2247	3
061509	09:53	709	UR27 consequence	60	4373	science
061509	09:53	709	JAUR68	61	2498	5
061509	09:53	709	UR68 fatigue	62	5152	fatigue
061509	09:53	709	JAUR22	63	1892	5
061509	09:53	709	UR22 thesaurus	64	6046	the
061509	09:53	709	JAUR07	65	2207	4
061509	09:53	709	UR07 gathering	66	4329	gathering
061509	09:53	709	JAUR95	67	2793	4
061509	09:53	709	UR95 fool	68	2458	fool
061509	09:53	709	JAUR63	69	2355	4
061509	09:53	709	UR63 alley	70	2105	alley
061509	09:53	709	JAUR06	71	2354	3
061509	09:53	709	UR06 cello	72	6224	temperature
061509	09:53	709	JAHL34	73	2243	4
061509	09:53	709	HL34 hunger	74	3236	hunger
061509	09:53	709	JAUR66	75	1950	4
061509	09:53	709	UR66 chief	76	2935	chief
061509	09:53	709	JAUR67	77	1910	4
061509	09:53	709	UR67 producer	78	2988	producer
061509	09:53	709	JAUR36	79	1870	4
061509	09:53	709	UR36 denim	80	2449	denim
061509	09:53	709	JAUR34	81	1428	5
061509	09:53	709	UR34 charity	82	1756	charity
061509	09:53	709	JALH14	83	3524	4
061509	09:53	709	LH14 note	84	1820	note
061509	09:53	709	JAHL50	85	1990	5
061509	09:53	709	HL50 doctor	86	1888	doctor
061509	09:53	709	JALH03	87	3953	4
061509	09:53	709	LH03 yard	88	2745	yard
061509	09:53	709	JALH22	89	1874	4
061509	09:53	709	LH22 crowd	90	4176	crowd
061509	09:53	709	JAUR46	91	1774	4
061509	09:53	709	UR46 content	92	3133	content
061509	09:53	709	JAUR75	93	2141	3
061509	09:53	709	UR75 awe	94	3132	awe
061509	09:53	709	JAUR78	95	1880	4
061509	09:53	709	UR78 blender	96	4682	blend
061509	09:53	709	JAHL39	97	2371	3
061509	09:53	709	HL39 book	98	2136	book
061509	09:53	709	JAUR62	99	2219	4
061509	09:53	709	UR62 chemistry	100	4702	chemistry
061509	09:53	709	JALH04	101	1883	5
061509	09:53	709	LH04 grade	102	2417	grade
061509	09:53	709	JAHL03	103	1748	4
061509	09:53	709	HL03 cigarette	104	4334	cigarette
061509	09:53	709	JAUR20	105	1968	5
061509	09:53	709	UR20 climax	106	6302	nothing
061509	09:53	709	JALH23	107	1643	4
061509	09:53	709	LH23 possibility	108	2752	possibility
061509	09:53	709	JAHL09	109	1630	4
061509	09:53	709	HL09 chalk	110	2507	chalk
061509	09:53	709	JALH01	111	1582	4
061509	09:53	709	LH01 brain	112	2376	brain
061509	09:53	709	JAHL42	113	1930	4
061509	09:53	709	HL42 pie	114	2855	pie
061509	09:53	709	JALH43	115	2394	5
061509	09:53	709	LH43 noise	116	1704	noise
061509	09:53	709	JALH30	117	4394	6
061509	09:53	709	LH30 assignment	118	2600	assignment
061509	09:53	709	JALH53	119	2451	7
061509	09:53	709	LH53 core	120	2800	core
061509	09:53	709	JAUR47	121	2460	5
061509	09:53	709	UR47 chimpanzee	122	4821	chimp
061509	09:53	709	JAUR42	123	2250	3
061509	09:53	709	UR42 sergeant	124	2377	sergeant
061509	09:53	709	JAUR01	125	2746	8
061509	09:53	709	UR01 file	126	3436	profile
061509	09:53	709	JAUR87	127	3123	7
061509	09:53	709	UR87 duty	128	2015	duty
061509	09:53	709	JAHL24	129	3563	3
061509	09:53	709	HL24 eye	130	1596	eye
061509	09:53	709	JAUR58	131	3175	5
061509	09:53	709	UR58 answer	132	3039	answer
061509	09:53	709	JAHL41	133	4673	6
061509	09:53	709	HL41 hand	134	2135	hand
061509	09:53	709	JAUR54	135	2722	4
061509	09:53	709	UR54 steam	136	2973	stem
061509	09:53	709	JAUR82	137	2444	6
061509	09:53	709	UR82 campus	138	2467	campus
061509	09:53	709	JAHL49	139	3687	3
061509	09:53	709	HL49 spice	140	2346	piece
061509	09:53	709	JAUR103	141	2765	8
061509	09:53	709	UR103 hula	142	2328	hula
061509	09:53	709	JAUR70	143	2874	8
061509	09:53	709	UR70 pajamas	144	3519	pajamas
061509	09:53	709	JAHL23	145	2504	7
061509	09:53	709	HL23 baby	146	1701	baby
061509	09:53	709	JALH09	147	3112	6
061509	09:53	709	LH09 piece	148	3617	problem
061509	09:53	709	JAHL05	149	2916	5
061509	09:53	709	HL05 mountain	150	1988	mountain
061509	09:53	709	JAHL25	151	2984	4
061509	09:53	709	HL25 cut	152	3261	action
061509	09:53	709	JAHL32	153	2688	1
061509	09:53	709	HL32 television	154	3133	television
061509	09:53	709	JALH38	155	3432	7
061509	09:53	709	LH38 paint	156	2395	paint
061509	09:53	709	JAUR52	157	2857	7
061509	09:53	709	UR52 knight	158	3148	night
061509	09:53	709	JAPR28	159	3312	7
061509	09:53	709	PR28 challenge	160	2107	challenge
061509	09:53	709	JALH25	161	2037	8
061509	09:53	709	LH25 track	162	2721	track
061509	09:53	709	JAUR24	163	2469	8
061509	09:53	709	UR24 kid	164	1421	kid
061509	09:53	709	JAUR17	165	2486	7
061509	09:53	709	UR17 trance	166	3390	trance
061509	09:53	709	JAHL10	167	2440	7
061509	09:53	709	HL10 cow	168	1941	cow
061509	09:53	709	JAUR30	169	2683	7
061509	09:53	709	UR30 lover	170	1675	lover
061509	09:53	709	JAUR14	171	2670	7
061509	09:53	709	UR14 fudge	172	3223	fudge
061509	09:53	709	JAUR60	173	2591	8
061509	09:53	709	UR60 plaque	174	5072	plaque
061509	09:53	709	JAHL21	175	3473	7
061509	09:53	709	HL21 empire	176	2361	empire
061509	09:53	709	JAHL45	177	2639	8
061509	09:53	709	HL45 words	178	2571	words
061509	09:53	709	JAUR107	179	2668	8
061509	09:53	709	UR107 cocaine	180	7705	nothing
061509	09:53	709	JALH46	181	4419	1
061509	09:53	709	LH46 submarine	182	3821	social
061509	09:53	709	JAUR85	183	2758	2
061509	09:53	709	UR85 stroke	184	2874	stroke
061509	09:53	709	JAUR28	185	3377	6
061509	09:53	709	UR28 bang	186	2149	bang
061509	09:53	709	JAUR98	187	2683	7
061509	09:53	709	UR98 latch	188	2352	larch
061509	09:53	709	JAUR105	189	3334	1
061509	09:53	709	UR105 curtain	190	2152	curtain
061509	09:53	709	JAUR65	191	2773	9
061509	09:53	709	UR65 checkers	192	2390	crackers
061509	09:53	709	JAUR106	193	2014	9
061509	09:53	709	UR106 eagle	194	5206	irregular
061509	09:53	709	JALH17	195	3516	9
061509	09:53	709	LH17 life	196	1551	life
061509	09:53	709	JAUR04	197	2788	7
061509	09:53	709	UR04 marsh	198	2123	marsh
061509	09:53	709	JAHL31	199	2775	6
061509	09:53	709	HL31 war	200	1418	war
061509	09:53	709	JALH07	201	2548	8
061509	09:53	709	LH07 rear	202	1722	rear
061509	09:53	709	JAHL33	203	2512	5
061509	09:53	709	HL33 joke	204	1650	joke
061509	09:53	709	JAHL01	205	2382	7
061509	09:53	709	HL01 elephant	206	2317	elephant
061509	09:53	709	JALH37	207	3513	4
061509	09:53	709	LH37 pad	208	1562	paid
061509	09:53	709	JAHL14	209	2579	9
061509	09:53	709	HL14 milk	210	1553	milk
061509	09:53	709	JAUR96	211	4382	5
061509	09:53	709	UR96 dessert	212	2213	dessert
061509	09:53	709	JALH32	213	3194	5
061509	09:53	709	LH32 capacity	214	2752	capacity
061509	09:53	709	JAUR59	215	6286	9
061509	09:53	709	UR59 copper	216	1785	copper
061509	09:53	709	JAUR21	217	2454	9
061509	09:53	709	UR21 ore	218	4357	ore
061509	09:53	709	JSPR26	1	6695	5
061509	09:53	709	PR26 colonel	2	5047	figure
061509	09:53	709	JSPR24	3	3645	5
061509	09:53	709	PR24 pest	4	1510	pet
061509	09:53	709	JSPR08	5	4048	8
061509	09:53	709	PR08 beef	6	2360	beef
061509	09:53	709	JSPR05	7	2360	8
061509	09:53	709	PR05 calf	8	2964	calf
061509	09:53	709	JSPR14	9	3335	8
061509	09:53	709	PR14 religion	10	3350	religion
061509	09:53	709	JSPR19	11	3393	6
061509	09:53	709	PR19 void	12	1866	void
061509	09:53	709	JSPR12	13	2592	7
061509	09:53	709	PR12 royalty	14	2748	royalty
061509	09:53	709	JSPR02	15	3513	3
061509	09:53	709	PR02 wrinkle	16	2597	wrinkle
061509	09:53	709	JSPR10	17	3020	5
061509	09:53	709	PR10 camel	18	1710	camel
061509	09:53	709	JSPR15	19	3194	5
061509	09:53	709	PR15 depletion	20	4478	depletion
061509	09:53	709	JSPR20	21	2736	4
061509	09:53	709	PR20 advertisement	22	4887	advertisement
061509	09:53	709	JSPR29	23	3146	6
061509	09:53	709	PR29 mermaid	24	5418	mermaid
061509	09:53	709	JSPR16	25	2898	7
061509	09:53	709	PR16 compulsion	26	3212	compulsion
061509	09:53	709	JSPR22	27	2605	7
061509	09:53	709	PR22 ass	28	3103	aasdf
061509	09:53	709	JSPR18	29	3297	3
061509	09:53	709	PR18 clorox	30	6322	closure
061509	09:53	709	JSUR33	1	3092	5
061509	09:53	709	UR33 horror	2	2880	horror
061509	09:53	709	JSUR41	3	2905	6
061509	09:53	709	UR41 chime	4	1665	chime
061509	09:53	709	JSLH06	5	2817	5
061509	09:53	709	LH06 element	6	2737	element
061509	09:53	709	JSHL40	7	2489	3
061509	09:53	709	HL40 temperature	8	2503	temperature
061509	09:53	709	JSLH10	9	2733	6
061509	09:53	709	LH10 care	10	1366	care
061509	09:53	709	JSHL16	11	3727	5
061509	09:53	709	HL16 broom	12	1912	broom
061509	09:53	709	JSLH42	13	2450	6
061509	09:53	709	LH42 thought	14	2281	thought
061509	09:53	709	JSLH44	15	2354	7
061509	09:53	709	LH44 vessel	16	2531	vessel
061509	09:53	709	JSLH41	17	2708	6
061509	09:53	709	LH41 girl	18	1568	girl
061509	09:53	709	JSHL08	19	2071	5
061509	09:53	709	HL08 math	20	1375	math
061509	09:53	709	JSHL30	21	2316	5
061509	09:53	709	HL30 air	22	2554	stair
061509	09:53	709	JSLH34	23	1956	6
061509	09:53	709	LH34 panel	24	1650	panel
061509	09:53	709	JSHL37	25	2409	6
061509	09:53	709	HL37 thread	26	1655	thread
061509	09:53	709	JSUR23	27	3688	8
061509	09:53	709	UR23 abundance	28	3005	abundance
061509	09:53	709	JSUR94	29	3191	7
061509	09:53	709	UR94 bristle	30	6739	basket
061509	09:53	709	JSLH29	31	3139	4
061509	09:53	709	LH29 closet	32	1660	closet
061509	09:53	709	JSUR97	33	2784	7
061509	09:53	709	UR97 banner	34	1874	banner
061509	09:53	709	JSUR73	35	1983	8
061509	09:53	709	UR73 kite	36	3859	knife
061509	09:53	709	JSHL15	37	2481	7
061509	09:53	709	HL15 bomb	38	2035	bomb
061509	09:53	709	JSUR05	39	2962	7
061509	09:53	709	UR05 lease	40	2025	lease
061509	09:53	709	JSLH40	41	2881	4
061509	09:53	709	LH40 field	42	2378	field
061509	09:53	709	JSUR09	43	4323	6
061509	09:53	709	UR09 education	44	4275	education
061509	09:53	709	JSHL18	45	2213	7
061509	09:53	709	HL18 paper	46	1541	paper
061509	09:53	709	JSUR61	47	3876	5
061509	09:53	709	UR61 suicide	48	4962	unicircle
061509	09:53	709	JSLH18	49	3557	7
061509	09:53	709	LH18 edge	50	1489	edge
061509	09:53	709	JSHL04	51	2203	7
061509	09:53	709	HL04 beer	52	1821	beer
061509	09:53	709	JSUR19	53	2451	7
061509	09:53	709	UR19 bison	54	1694	bison
061509	09:53	709	JSLH12	55	2008	7
061509	09:53	709	LH12 addition	56	1810	addition
061509	09:53	709	JSHL02	57	2141	7
061509	09:53	709	HL02 flower	58	1552	flower
061509	09:53	709	JSLH36	59	4031	5
061509	09:53	709	LH36 gang	60	3492	ganger
061509	09:53	709	JSLH48	61	2998	6
061509	09:53	709	LH48 outcome	62	1925	outcome
061509	09:53	709	JSLH15	63	2285	5
061509	09:53	709	LH15 blessing	64	2182	blessing
061509	09:53	709	JSHL35	65	3341	5
061509	09:53	709	HL35 cake	66	1408	cake
061509	09:53	709	JSUR40	67	2872	6
061509	09:53	709	UR40 dancer	68	1379	dance
061509	09:53	709	JSUR88	69	2366	7
061509	09:53	709	UR88 circus	70	2187	circus
061509	09:53	709	JSUR81	71	2479	7
061509	09:53	709	UR81 acid	72	1349	acid
061509	09:53	709	JSUR92	73	2264	8
061509	09:53	709	UR92 dart	74	1378	dart
061509	09:53	709	JSHL44	75	2054	7
061509	09:53	709	HL44 baseball	76	2120	baseball
061509	09:53	709	JSHL46	77	2210	7
061509	09:53	709	HL46 butter	78	2012	butter
061509	09:53	709	JSUR15	79	2034	6
061509	09:53	709	UR15 compass	80	2263	compass
061509	09:53	709	JSLH35	81	2816	7
061509	09:53	709	LH35 shelter	82	1621	shelter
061509	09:53	709	JSUR91	83	3382	5
061509	09:53	709	UR91 anteater	84	5510	anteater
061509	09:53	709	JSLH08	85	2373	7
061509	09:53	709	LH08 house	86	1540	house
061509	09:53	709	JSLH21	87	3198	6
061509	09:53	709	LH21 monument	88	3283	moment
061509	09:53	709	JSUR83	89	2928	6
061509	09:53	709	UR83 lesson	90	2185	lesson
061509	09:53	709	JSHL22	91	3094	8
061509	09:53	709	HL22 problem	92	3466	problem
061509	09:53	709	JSLH47	93	3819	7
061509	09:53	709	LH47 detergent	94	2674	detergent
061509	09:53	709	JSUR56	95	3405	5
061509	09:53	709	UR56 antler	96	2098	anger
061509	09:53	709	JSUR80	97	3588	5
061509	09:53	709	UR80 antique	98	2631	antique
061509	09:53	709	JSUR11	99	3147	3
061509	09:53	709	UR11 foundation	100	2225	foundation
061509	09:53	709	JSHL11	101	2948	6
061509	09:53	709	HL11 rock	102	1499	rock
061509	09:53	709	JSLH16	103	2805	7
061509	09:53	709	LH16 power	104	1624	power
061509	09:53	709	JSUR18	105	2717	8
061509	09:53	709	UR18 relief	106	1975	relief
061509	09:53	709	JSLH39	107	2340	7
061509	09:53	709	LH39 reward	108	2141	reward
061509	09:53	709	JSUR79	109	3025	5
061509	09:53	709	UR79 beetle	110	2890	vegetable
061509	09:53	709	JSUR102	111	2315	7
061509	09:53	709	UR102 velocity	112	4198	velocity
061509	09:53	709	JSUR101	113	3003	3
061509	09:53	709	UR101 beard	114	1946	bread
061509	09:53	709	JSUR72	115	3440	8
061509	09:53	709	UR72 band	116	2401	band
061509	09:53	709	JSUR51	117	3005	7
061509	09:53	709	UR51 cabbage	118	2673	cabbage
061509	09:53	709	JSHL54	119	3113	3
061509	09:53	709	HL54 indian	120	4592	stain
061509	09:53	709	JSUR39	121	2571	8
061509	09:53	709	UR39 faith	122	1967	faith
061509	09:53	709	JSUR49	123	2676	8
061509	09:53	709	UR49 casket	124	2402	casket
061509	09:53	709	JSLH49	125	3836	5
061509	09:53	709	LH49 kindness	126	2611	kindness
061509	09:53	709	JSUR10	127	2930	2
061509	09:53	709	UR10 tribe	128	3007	tribe
061509	09:53	709	JSHL06	129	2532	7
061509	09:53	709	HL06 egg	130	1794	edge
061509	09:53	709	JSUR71	131	2482	7
061509	09:53	709	UR71 padding	132	1983	padding
061509	09:53	709	JSUR25	133	2133	7
061509	09:53	709	UR25 partner	134	1830	partner
061509	09:53	709	JSUR03	135	2473	3
061509	09:53	709	UR03 vehicle	136	3938	vehicle
061509	09:53	709	JSHL28	137	2897	5
061509	09:53	709	HL28 bird	138	2691	bridge
061509	09:53	709	JSUR100	139	2810	8
061509	09:53	709	UR100 comb	140	1766	comb
061509	09:53	709	JSUR89	141	3087	5
061509	09:53	709	UR89 crow	142	2687	crow
061509	09:53	709	JSUR29	143	3571	3
061509	09:53	709	UR29 patrol	144	3387	patrol
061509	09:53	709	JSHL38	145	2443	7
061509	09:53	709	HL38 boat	146	3804	basket
061509	09:53	709	JSLH33	147	3885	6
061509	09:53	709	LH33 fable	148	2038	fable
061509	09:53	709	JSUR31	149	3474	5
061509	09:53	709	UR31 diameter	150	1830	diameter
061509	09:53	709	JSHL19	151	3809	4
061509	09:53	709	HL19 car	152	1412	car
061509	09:53	709	JSLH31	153	3285	4
061509	09:53	709	LH31 self	154	1401	self
061509	09:53	709	JSLH13	155	2208	7
061509	09:53	709	LH13 crease	156	2004	crease
061509	09:53	709	JSUR37	157	3499	5
061509	09:53	709	UR37 cloth	158	1479	cloth
061509	09:53	709	JSHL27	159	2789	6
061509	09:53	709	HL27 rain	160	1319	rain
061509	09:53	709	JSUR104	161	2994	5
061509	09:53	709	UR104 aardvark	162	2457	aardvark
061509	09:53	709	JSUR38	163	4021	4
061509	09:53	709	UR38 energy	164	1702	energy
061509	09:53	709	JSUR90	165	2696	5
061509	09:53	709	UR90 sailing	166	1758	sailing
061509	09:53	709	JSUR57	167	2986	6
061509	09:53	709	UR57 benefit	168	2793	benefit
061509	09:53	709	JSUR86	169	3878	5
061509	09:53	709	UR86 boulevard	170	6062	boulevard
061509	09:53	709	JSLH45	171	2582	6
061509	09:53	709	LH45 intellect	172	2836	intellect
061509	09:53	709	JSLH26	173	2657	6
061509	09:53	709	LH26 center	174	1623	center
061509	09:53	709	JSUR12	175	2191	7
061509	09:53	709	UR12 unicorn	176	2316	unicorn
061509	09:53	709	JSUR108	177	1998	6
061509	09:53	709	UR108 shield	178	2213	shield
061509	09:53	709	JSUR99	179	1815	7
061509	09:53	709	UR99 branch	180	2998	branch
061509	09:53	709	JSHL29	181	1564	7
061509	09:53	709	HL29 ring	182	1410	ring
061509	09:53	709	JSHL26	183	2281	6
061509	09:53	709	HL26 light	184	1387	light
061509	09:53	709	JSLH28	185	2667	5
061509	09:53	709	LH28 vagrant	186	3816	vagrant
061509	09:53	709	JSHL52	187	2195	6
061509	09:53	709	HL52 sand	188	1340	sand
061509	09:53	709	JSHL48	189	2068	6
061509	09:53	709	HL48 airplane	190	1758	airplane
061509	09:53	709	JSUR43	191	1733	6
061509	09:53	709	UR43 balloon	192	1665	balloon
061509	09:53	709	JSUR93	193	2059	6
061509	09:53	709	UR93 catcher	194	1753	catcher
061509	09:53	709	JSHL20	195	1539	6
061509	09:53	709	HL20 wine	196	1148	wine
061509	09:53	709	JSHL13	197	1843	6
061509	09:53	709	HL13 map	198	2320	map
061509	09:53	709	JSHL12	199	2077	6
061509	09:53	709	HL12 space	200	1932	space
061509	09:53	709	JSUR02	201	2058	6
061509	09:53	709	UR02 comma	202	2559	common
061509	09:53	709	JSUR48	203	2579	7
061509	09:53	709	UR48 democracy	204	3931	democracy
061509	09:53	709	JSUR08	205	1672	6
061509	09:53	709	UR08 assistant	206	2638	assistant
061509	09:53	709	JSUR84	207	1643	7
061509	09:53	709	UR84 flag	208	1439	flag
061509	09:53	709	JSUR26	209	2087	6
061509	09:53	709	UR26 eternity	210	1750	eternity
061509	09:53	709	JSLH52	211	1948	6
061509	09:53	709	LH52 bureau	212	2369	bureau
061509	09:53	709	JSUR44	213	1316	6
061509	09:53	709	UR44 rot	214	1538	riot
061509	09:53	709	JSUR16	215	1780	7
061509	09:53	709	UR16 century	216	1859	century

date	time	subject	trialcode	trialnum	latency	response
061509	12:03	712	JAPR17	1	23558	3
061509	12:03	712	PR17 emerald	2	15822	laugh
061509	12:03	712	JAPR27	3	8244	3
061509	12:03	712	PR27 wheat	4	2959	wheat
061509	12:03	712	JAPR07	5	4671	2
061509	12:03	712	PR07 bog	6	7839	music
061509	12:03	712	JAPR23	7	2156	6
061509	12:03	712	PR23 companion	8	5864	wrinkle
061509	12:03	712	JAPR06	9	5604	8
061509	12:03	712	PR06 beast	10	10075	witch
061509	12:03	712	JAPR09	11	2554	9
061509	12:03	712	PR09 album	12	8677	jewel
061509	12:03	712	JAPR21	13	1586	9
061509	12:03	712	PR21 innocence	14	12561	innocence
061509	12:03	712	JAPR01	15	2068	8
061509	12:03	712	PR01 cash	16	1593	cash
061509	12:03	712	JAPR11	17	1604	6
061509	12:03	712	PR11 ounce	18	3939	ounce
061509	12:03	712	JAPR25	19	2062	7
061509	12:03	712	PR25 saliva	20	3710	saliva
061509	12:03	712	JAPR30	21	1061	6
061509	12:03	712	PR30 maiden	22	1630	maiden
061509	12:03	712	JAPR03	23	1332	5
061509	12:03	712	PR03 acre	24	1716	acre
061509	12:03	712	JAPR13	25	1538	5
061509	12:03	712	PR13 ambition	26	1955	ambition
061509	12:03	712	JAPR04	27	1386	5
061509	12:03	712	PR04 diaper	28	1563	diaper
061509	12:03	712	JAUR53	1	2295	8
061509	12:03	712	UR53 hell	2	1261	hell
061509	12:03	712	JAUR13	3	1230	6
061509	12:03	712	UR13 almanac	4	2556	almanac
061509	12:03	712	JAHL07	5	1418	6
061509	12:03	712	HL07 king	6	1714	king
061509	12:03	712	JALH05	7	1445	9
061509	12:03	712	LH05 chain	8	2662	chain
061509	12:03	712	JALH02	9	1493	5
061509	12:03	712	LH02 harm	10	7728	theater
061509	12:03	712	JAUR64	11	2358	7
061509	12:03	712	UR64 fist	12	2253	first
061509	12:03	712	JAUR32	13	1434	5
061509	12:03	712	UR32 navigator	14	3407	navigator
061509	12:03	712	JALH50	15	2338	5
061509	12:03	712	LH50 measure	16	1779	measure
061509	12:03	712	JALH27	17	1261	8
061509	12:03	712	LH27 condition	18	2282	condition
061509	12:03	712	JAHL17	19	1573	6
061509	12:03	712	HL17 soap	20	5013	soap
061509	12:03	712	JAUR74	21	1779	8
061509	12:03	712	UR74 suitcase	22	2089	suitcase
061509	12:03	712	JAHL36	23	1180	8
061509	12:03	712	HL36 football	24	1905	football
061509	12:03	712	JALH20	25	1889	5
061509	12:03	712	LH20 violation	26	8958	tragedy
061509	12:03	712	JALH54	27	2783	5
061509	12:03	712	LH54 limit	28	3873	years
061509	12:03	712	JALH51	29	1946	8
061509	12:03	712	LH51 exit	30	3861	exit
061509	12:03	712	JAUR35	31	1465	9
061509	12:03	712	UR35 cause	32	1881	cause
061509	12:03	712	JALH19	33	1333	6
061509	12:03	712	LH19 snob	34	3479	snob
061509	12:03	712	JAHL51	35	1714	6
061509	12:03	712	HL51 color	36	2298	color
061509	12:03	712	JAHL47	37	1555	6
061509	12:03	712	HL47 horse	38	1638	horse
061509	12:03	712	JAUR45	39	2227	5
061509	12:03	712	UR45 bridge	40	3623	carraige
061509	12:03	712	JAUR69	41	1726	8
061509	12:03	712	UR69 flashlight	42	5999	coke
061509	12:03	712	JAUR76	43	2110	7
061509	12:03	712	UR76 dignity	44	12810	soda
