date	time	subject	trialcode	trialnum	latency	response	
090607	09:59	801	JSseePR17	1	500	0	
090607	09:59	801	PR17 emerald	2	12203	cat	
090607	09:59	801	JSPR17	3	21920	5	
090607	09:59	801	JSseePR27	4	500	0	
090607	09:59	801	PR27 wheat	5	14886	sister	
090607	09:59	801	JSPR27	6	12174	4	
090607	09:59	801	JSseePR07	7	500	0	
090607	09:59	801	PR07 bog	8	6408	music	
090607	09:59	801	JSPR07	9	9661	5	
090607	09:59	801	JSseePR23	10	500	0	
090607	09:59	801	PR23 companion	11	19347	type	
090607	09:59	801	JSPR23	12	23015	4	
090607	09:59	801	JSseePR06	13	500	0	
090607	09:59	801	PR06 beast	14	10184	movie	
090607	09:59	801	JSPR06	15	10203	2	
090607	09:59	801	JSseePR09	16	500	0	
090607	09:59	801	PR09 album	17	7721	noise	
090607	09:59	801	JSPR09	18	10589	6	
090607	09:59	801	JSseePR21	19	500	0	
090607	09:59	801	PR21 innocence	20	9301	fiction	
090607	09:59	801	JSPR21	21	7244	4	
090607	09:59	801	JSseePR01	22	500	0	
090607	09:59	801	PR01 cash	23	3839	nut	
090607	09:59	801	JSPR01	24	4356	4	
090607	09:59	801	JSseePR11	25	500	0	
090607	09:59	801	PR11 ounce	26	13528	wind	
090607	09:59	801	JSPR11	27	15831	5	
090607	09:59	801	JSseePR25	28	500	0	
090607	09:59	801	PR25 saliva	29	5005	food	
090607	09:59	801	JSPR25	30	9846	7	
090607	09:59	801	JSseePR30	31	500	0	
090607	09:59	801	PR30 maiden	32	7379	people	
090607	09:59	801	JSPR30	33	6115	5	
090607	09:59	801	JSseePR03	34	500	0	
090607	09:59	801	PR03 acre	35	3963	food	
090607	09:59	801	JSPR03	36	19937	10	
090607	09:59	801	JSseePR13	37	500	0	
090607	09:59	801	PR13 ambition	38	5539	people	
090607	09:59	801	JSPR13	39	11676	1	
090607	09:59	801	JSseePR04	40	500	0	
090607	09:59	801	PR04 diaper	41	11704	jewlery	
090607	09:59	801	JSPR04	42	11630	3	
090607	09:59	801	JSseePR28	43	500	0	
090607	09:59	801	PR28 challenge	44	7583	jail	
090607	09:59	801	JSPR28	45	8630	8	
090607	09:59	801	JSseeUR42	1	500	0	
090607	09:59	801	UR42 sergeant	2	4970	maid	
090607	09:59	801	JSUR42	3	16513	5	
090607	09:59	801	JSseeUR52	4	500	0	
090607	09:59	801	UR52 knight	5	7951	string	
090607	09:59	801	JSUR52	6	4893	3	
090607	09:59	801	JSseeLH01	7	500	0	
090607	09:59	801	LH01 brain	8	7747	brain	
090607	09:59	801	JSLH01	9	7081	2	
090607	09:59	801	JSseeHL45	10	500	0	
090607	09:59	801	HL45 words	11	3522	words	
090607	09:59	801	JSHL45	12	11887	6	
090607	09:59	801	JSseeLH03	13	500	0	
090607	09:59	801	LH03 yard	14	7184	ball	
090607	09:59	801	JSLH03	15	5936	6	
090607	09:59	801	JSseeHL21	16	500	0	
090607	09:59	801	HL21 empire	17	7855	history	
090607	09:59	801	JSHL21	18	4815	7	
090607	09:59	801	JSseeLH38	19	500	0	
090607	09:59	801	LH38 paint	20	4840	cold	
090607	09:59	801	JSLH38	21	5339	4	
090607	09:59	801	JSseeLH43	22	500	0	
090607	09:59	801	LH43 noise	23	11921	outside	
090607	09:59	801	JSLH43	24	8509	7	
090607	09:59	801	JSseeLH37	25	500	0	
090607	09:59	801	LH37 pad	26	19230	chair	
090607	09:59	801	JSLH37	27	18443	9	
090607	09:59	801	JSseeHL07	28	500	0	
090607	09:59	801	HL07 king	29	4341	king	
090607	09:59	801	JSHL07	30	8307	10	
090607	09:59	801	JSseeHL39	31	500	0	
090607	09:59	801	HL39 book	32	2362	book	
090607	09:59	801	JSHL39	33	6992	5	
090607	09:59	801	JSseeLH24	34	500	0	
090607	09:59	801	LH24 feeling	35	11718	faith	
090607	09:59	801	JSLH24	36	8656	5	
090607	09:59	801	JSseeHL42	37	500	0	
090607	09:59	801	HL42 pie	38	5540	food	
090607	09:59	801	JSHL42	39	5501	5	
090607	09:59	801	JSseeUR30	40	500	0	
090607	09:59	801	UR30 lover	41	4826	cancer	
090607	09:59	801	JSUR30	42	4952	3	
090607	09:59	801	JSseeUR95	43	500	0	
090607	09:59	801	UR95 fool	44	39223	later	
090607	09:59	801	JSUR95	45	4162	5	
090607	09:59	801	JSseeLH20	46	500	0	
090607	09:59	801	LH20 violation	47	6598	police	
090607	09:59	801	JSLH20	48	6551	4	
090607	09:59	801	JSseeUR96	49	500	0	
090607	09:59	801	UR96 dessert	50	12402	fantacy	
090607	09:59	801	JSUR96	51	9276	5	
090607	09:59	801	JSseeUR66	52	500	0	
090607	09:59	801	UR66 chief	53	4522	food	
090607	09:59	801	JSUR66	54	10819	1	
090607	09:59	801	JSseeHL17	55	500	0	
090607	09:59	801	HL17 soap	56	3926	shower	
090607	09:59	801	JSHL17	57	5935	4	
090607	09:59	801	JSseeUR06	58	500	0	
090607	09:59	801	UR06 cello	59	10471	tempeture	
090607	09:59	801	JSUR06	60	8828	6	
090607	09:59	801	JSseeLH32	61	500	0	
090607	09:59	801	LH32 capacity	62	6720	skill	
090607	09:59	801	JSLH32	63	7978	3	
090607	09:59	801	JSseeUR103	64	500	0	
090607	09:59	801	UR103 hula	65	6750	laugh	
090607	09:59	801	JSUR103	66	9485	9	
090607	09:59	801	JSseeHL23	67	500	0	
090607	09:59	801	HL23 baby	68	12057	fish	
090607	09:59	801	JSHL23	69	14935	6	
090607	09:59	801	JSseeUR63	70	500	0	
090607	09:59	801	UR63 alley	71	6629	sneeze	
090607	09:59	801	JSUR63	72	5079	3	
090607	09:59	801	JSseeLH11	73	500	0	
090607	09:59	801	LH11 cancer	74	11278	ocean	
090607	09:59	801	JSLH11	75	5902	6	
090607	09:59	801	JSseeHL03	76	500	0	
090607	09:59	801	HL03 cigarette	77	8415	cigarette	
090607	09:59	801	JSHL03	78	8561	5	
090607	09:59	801	JSseeUR28	79	500	0	
090607	09:59	801	UR28 bang	80	5590	police	
090607	09:59	801	JSUR28	81	9428	8	
090607	09:59	801	JSseeLH04	82	500	0	
090607	09:59	801	LH04 grade	83	9377	point	
090607	09:59	801	JSLH04	84	8308	6	
090607	09:59	801	JSseeHL01	85	500	0	
090607	09:59	801	HL01 elephant	86	8958	mouth	
090607	09:59	801	JSHL01	87	7050	3	
090607	09:59	801	JSseeLH27	88	500	0	
090607	09:59	801	LH27 condition	89	13108	investigation	
090607	09:59	801	JSLH27	90	10860	1	
090607	09:59	801	JSseeLH51	91	500	0	
090607	09:59	801	LH51 exit	92	2715	plug	
090607	09:59	801	JSLH51	93	6003	4	
090607	09:59	801	JSseeLH07	94	500	0	
090607	09:59	801	LH07 rear	95	6142	middle	
090607	09:59	801	JSLH07	96	4086	1	
090607	09:59	801	JSseeHL41	97	500	0	
090607	09:59	801	HL41 hand	98	7628	hand	
090607	09:59	801	JSHL41	99	10747	1	
090607	09:59	801	JSseeUR50	100	500	0	
090607	09:59	801	UR50 crane	101	16021	moving	
090607	09:59	801	JSUR50	102	4854	4	
090607	09:59	801	JSseeUR76	103	500	0	
090607	09:59	801	UR76 dignity	104	6337	number	
090607	09:59	801	JSUR76	105	5340	4	
090607	09:59	801	JSseeUR69	106	500	0	
090607	09:59	801	UR69 flashlight	107	4812	sucker	
090607	09:59	801	JSUR69	108	4263	3	
090607	09:59	801	JSseeUR85	109	500	0	
090607	09:59	801	UR85 stroke	110	6324	wood	
090607	09:59	801	JSUR85	111	6672	1	
090607	09:59	801	JSseeHL47	112	500	0	
090607	09:59	801	HL47 horse	113	6553	horse	
090607	09:59	801	JSHL47	114	3355	5	
090607	09:59	801	JSseeHL49	115	500	0	
090607	09:59	801	HL49 spice	116	3124	spice	
090607	09:59	801	JSHL49	117	5047	4	
090607	09:59	801	JSseeUR22	118	500	0	
090607	09:59	801	UR22 thesaurus	119	3665	pitcher	
090607	09:59	801	JSUR22	120	6988	4	
090607	09:59	801	JSseeLH25	121	500	0	
090607	09:59	801	LH25 track	122	2899	school	
090607	09:59	801	JSLH25	123	5297	7	
090607	09:59	801	JSseeUR82	124	500	0	
090607	09:59	801	UR82 campus	125	8941	president	
090607	09:59	801	JSUR82	126	9069	5	
090607	09:59	801	JSseeLH02	127	500	0	
090607	09:59	801	LH02 harm	128	2477	harm	
090607	09:59	801	JSLH02	129	2887	4	
090607	09:59	801	JSseeLH14	130	500	0	
090607	09:59	801	LH14 note	131	4174	guess	
090607	09:59	801	JSLH14	132	3512	1	
090607	09:59	801	JSseeUR70	133	500	0	
090607	09:59	801	UR70 pajamas	134	8823	pot	
090607	09:59	801	JSUR70	135	7798	9	
090607	09:59	801	JSseeHL31	136	500	0	
090607	09:59	801	HL31 war	137	2464	war	
090607	09:59	801	JSHL31	138	12409	6	
090607	09:59	801	JSseeLH50	139	500	0	
090607	09:59	801	LH50 measure	140	3873	measure	
090607	09:59	801	JSLH50	141	4218	7	
090607	09:59	801	JSseeUR60	142	500	0	
090607	09:59	801	UR60 plaque	143	17328	stage	
090607	09:59	801	JSUR60	144	29541	8	
090607	09:59	801	JSseeUR68	145	500	0	
090607	09:59	801	UR68 fatigue	146	3206	fix	
090607	09:59	801	JSUR68	147	3014	4	
090607	09:59	801	JSseeUR20	148	500	0	
090607	09:59	801	UR20 climax	149	9636	weather	
090607	09:59	801	JSUR20	150	9960	6	
090607	09:59	801	JSseeHL09	151	500	0	
090607	09:59	801	HL09 chalk	152	3944	chalk	
090607	09:59	801	JSHL09	153	6305	4	
090607	09:59	801	JSseeLH09	154	500	0	
090607	09:59	801	LH09 piece	155	3104	piece	
090607	09:59	801	JSLH09	156	8771	5	
090607	09:59	801	JSseeUR27	157	500	0	
090607	09:59	801	UR27 consequence	158	4277	guess	
090607	09:59	801	JSUR27	159	7942	3	
090607	09:59	801	JSseeLH30	160	500	0	
090607	09:59	801	LH30 assignment	161	4351	assignment	
090607	09:59	801	JSLH30	162	3114	8	
090607	09:59	801	JSseeUR67	163	500	0	
090607	09:59	801	UR67 producer	164	2651	guess	
090607	09:59	801	JSUR67	165	6654	1	
090607	09:59	801	JSseeUR13	166	500	0	
090607	09:59	801	UR13 almanac	167	6089	guess	
090607	09:59	801	JSUR13	168	10955	7	
090607	09:59	801	JSseeUR107	169	500	0	
090607	09:59	801	UR107 cocaine	170	8861	bug	
090607	09:59	801	JSUR107	171	3266	6	
090607	09:59	801	JSseeUR65	172	500	0	
090607	09:59	801	UR65 checkers	173	2312	food	
090607	09:59	801	JSUR65	174	5815	7	
090607	09:59	801	JSseeUR59	175	500	0	
090607	09:59	801	UR59 copper	176	4405	paper	
090607	09:59	801	JSUR59	177	7799	6	
090607	09:59	801	JSseeHL53	178	500	0	
090607	09:59	801	HL53 fish	179	2124	fish	
090607	09:59	801	JSHL53	180	3570	7	
090607	09:59	801	JSseeUR47	181	500	0	
090607	09:59	801	UR47 chimpanzee	182	4512	smoke	
090607	09:59	801	JSUR47	183	5416	6	
090607	09:59	801	JSseeUR58	184	500	0	
090607	09:59	801	UR58 answer	185	11148	person	
090607	09:59	801	JSUR58	186	4564	7	
090607	09:59	801	JSseeLH53	187	500	0	
090607	09:59	801	LH53 core	188	2626	core	
090607	09:59	801	JSLH53	189	4087	8	
090607	09:59	801	JSseeUR105	190	500	0	
090607	09:59	801	UR105 curtain	191	2325	guess	
090607	09:59	801	JSUR105	192	4731	2	
090607	09:59	801	JSseeHL05	193	500	0	
090607	09:59	801	HL05 mountain	194	3209	mountain	
090607	09:59	801	JSHL05	195	1433	3	
090607	09:59	801	JSseeUR64	196	500	0	
090607	09:59	801	UR64 fist	197	2511	money	
090607	09:59	801	JSUR64	198	15968	4	
090607	09:59	801	JSseeUR32	199	500	0	
090607	09:59	801	UR32 navigator	200	7335	metaphor	
090607	09:59	801	JSUR32	201	3271	3	
090607	09:59	801	JSseeUR04	202	500	0	
090607	09:59	801	UR04 marsh	203	6881	halloween	
090607	09:59	801	JSUR04	204	4381	5	
090607	09:59	801	JSseeHL34	205	500	0	
090607	09:59	801	HL34 hunger	206	2338	hunger	
090607	09:59	801	JSHL34	207	2910	3	
090607	09:59	801	JSseeUR106	208	500	0	
090607	09:59	801	UR106 eagle	209	3764	hear	
090607	09:59	801	JSUR106	210	2286	4	
090607	09:59	801	JSseeUR77	211	500	0	
090607	09:59	801	UR77 uncle	212	3924	guess	
090607	09:59	801	JSUR77	213	4631	7	
090607	09:59	801	JSseeUR35	214	500	0	
090607	09:59	801	UR35 cause	215	4443	animal	
090607	09:59	801	JSUR35	216	6533	6	
090607	09:59	801	JSseeHL43	217	500	0	
090607	09:59	801	HL43 money	218	3783	money	
090607	09:59	801	JSHL43	219	3585	4	
090607	09:59	801	JSseeLH23	220	500	0	
090607	09:59	801	LH23 possibility	221	6835	possible	
090607	09:59	801	JSLH23	222	4321	5	
090607	09:59	801	JSseeUR36	223	500	0	
090607	09:59	801	UR36 denim	224	7974	guess	
090607	09:59	801	JSUR36	225	11342	2	
090607	09:59	801	JSseeHL24	226	500	0	
090607	09:59	801	HL24 eye	227	3606	mess	
090607	09:59	801	JSHL24	228	3160	4	
090607	09:59	801	JSseeLH22	229	500	0	
090607	09:59	801	LH22 crowd	230	2995	crowd	
090607	09:59	801	JSLH22	231	5759	4	
090607	09:59	801	JSseeLH05	232	500	0	
090607	09:59	801	LH05 chain	233	2250	chain	
090607	09:59	801	JSLH05	234	3203	7	
090607	09:59	801	JSseeUR45	235	500	0	
090607	09:59	801	UR45 bridge	236	4350	marrage	
090607	09:59	801	JSUR45	237	3680	3	
090607	09:59	801	JSseeHL33	238	500	0	
090607	09:59	801	HL33 joke	239	2158	joke	
090607	09:59	801	JSHL33	240	5525	5	
090607	09:59	801	JSseeUR14	241	500	0	
090607	09:59	801	UR14 fudge	242	3350	jail	
090607	09:59	801	JSUR14	243	3049	7	
090607	09:59	801	JSseeUR46	244	500	0	
090607	09:59	801	UR46 content	245	3100	guess	
090607	09:59	801	JSUR46	246	4094	6	
090607	09:59	801	JSseeUR78	247	500	0	
090607	09:59	801	UR78 blender	248	6917	hot	
090607	09:59	801	JSUR78	249	4930	5	
090607	09:59	801	JSseeUR62	250	500	0	
090607	09:59	801	UR62 chemistry	251	7000	smart	
090607	09:59	801	JSUR62	252	1480	5	
090607	09:59	801	JSseeUR75	253	500	0	
090607	09:59	801	UR75 awe	254	6347	weapon	
090607	09:59	801	JSUR75	255	6373	1	
090607	09:59	801	JSseeLH46	256	500	0	
090607	09:59	801	LH46 submarine	257	3072	food	
090607	09:59	801	JSLH46	258	4524	1	
090607	09:59	801	JSseeLH17	259	500	0	
090607	09:59	801	LH17 life	260	1711	life	
090607	09:59	801	JSLH17	261	6562	4	
090607	09:59	801	JSseeUR21	262	500	0	
090607	09:59	801	UR21 ore	263	6425	star	
090607	09:59	801	JSUR21	264	2015	3	
090607	09:59	801	JSseeUR17	265	500	0	
090607	09:59	801	UR17 trance	266	4274	money	
090607	09:59	801	JSUR17	267	1615	4	
090607	09:59	801	JSseeUR98	268	500	0	
090607	09:59	801	UR98 latch	269	3376	guess	
090607	09:59	801	JSUR98	270	1199	1	
090607	09:59	801	JSseeHL36	271	500	0	
090607	09:59	801	HL36 football	272	2766	football	
090607	09:59	801	JSHL36	273	1202	1	
090607	09:59	801	JSseeHL32	274	500	0	
090607	09:59	801	HL32 television	275	6128	guess	
090607	09:59	801	JSHL32	276	2951	1	
090607	09:59	801	JSseeLH19	277	500	0	
090607	09:59	801	LH19 snob	278	2038	blow	
090607	09:59	801	JSLH19	279	7237	4	
090607	09:59	801	JSseeHL51	280	500	0	
090607	09:59	801	HL51 color	281	3255	color	
090607	09:59	801	JSHL51	282	1893	5	
090607	09:59	801	JSseeHL50	283	500	0	
090607	09:59	801	HL50 doctor	284	2225	doctor	
090607	09:59	801	JSHL50	285	644	3	
090607	09:59	801	JSseeUR53	286	500	0	
090607	09:59	801	UR53 hell	287	2448	guess	
090607	09:59	801	JSUR53	288	3778	6	
090607	09:59	801	JSseeUR87	289	500	0	
090607	09:59	801	UR87 duty	290	10433	guess	
090607	09:59	801	JSUR87	291	9688	7	
090607	09:59	801	JSseeHL25	292	500	0	
090607	09:59	801	HL25 cut	293	3283	cut	
090607	09:59	801	JSHL25	294	3408	4	
090607	09:59	801	JSseeHL14	295	500	0	
090607	09:59	801	HL14 milk	296	1666	milk	
090607	09:59	801	JSHL14	297	3583	6	
090607	09:59	801	JSseeHL10	298	500	0	
090607	09:59	801	HL10 cow	299	1384	cow	
090607	09:59	801	JSHL10	300	1491	4	
090607	09:59	801	JSseeUR01	301	500	0	
090607	09:59	801	UR01 file	302	1517	file	
090607	09:59	801	JSUR01	303	1411	4	
090607	09:59	801	JSseeUR55	304	500	0	
090607	09:59	801	UR55 bargain	305	4746	guess	
090607	09:59	801	JSUR55	306	2701	3	
090607	09:59	801	JSseeUR07	307	500	0	
090607	09:59	801	UR07 gathering	308	2930	bleeding	
090607	09:59	801	JSUR07	309	4418	9	
090607	09:59	801	JSseeUR74	310	500	0	
090607	09:59	801	UR74 suitcase	311	2097	guess	
090607	09:59	801	JSUR74	312	10505	9	
090607	09:59	801	JSseeUR34	313	500	0	
090607	09:59	801	UR34 charity	314	1986	guess	
090607	09:59	801	JSUR34	315	2110	4	
090607	09:59	801	JSseeLH54	316	500	0	
090607	09:59	801	LH54 limit	317	4630	far	
090607	09:59	801	JSLH54	318	6554	6	
090607	09:59	801	JSseeUR54	319	500	0	
090607	09:59	801	UR54 steam	320	1908	loud	
090607	09:59	801	JSUR54	321	3527	5	
090607	09:59	801	JSseeUR24	322	500	0	
090607	09:59	801	UR24 kid	323	2079	kid	
090607	09:59	801	JSUR24	324	2229	5	
090607	09:59	801	JAseePR26	1	500	0	
090607	09:59	801	PR26 colonel	2	29148	g	
090607	09:59	801	JAPR26	3	16100	6	
090607	09:59	801	JAseePR24	4	500	0	
090607	09:59	801	PR24 pest	5	3590	guess	
090607	09:59	801	JAPR24	6	15638	6	
090607	09:59	801	JAseePR08	7	500	0	
090607	09:59	801	PR08 beef	8	5096	bug	
090607	09:59	801	JAPR08	9	10102	5	
090607	09:59	801	JAseePR05	10	500	0	
090607	09:59	801	PR05 calf	11	9766	day	
090607	09:59	801	JAPR05	12	11684	6	
090607	09:59	801	JAseePR14	13	500	0	
090607	09:59	801	PR14 religion	14	3438	sad	
090607	09:59	801	JAPR14	15	1392	6	
090607	09:59	801	JAseePR19	16	500	0	
090607	09:59	801	PR19 void	17	29414	guess	
090607	09:59	801	JAPR19	18	1923	5	
090607	09:59	801	JAseePR12	19	500	0	
090607	09:59	801	PR12 royalty	20	6683	royalty	
090607	09:59	801	JAPR12	21	3859	3	
090607	09:59	801	JAseePR02	22	500	0	
090607	09:59	801	PR02 wrinkle	23	6940	wrinkle	
090607	09:59	801	JAPR02	24	2542	6	
090607	09:59	801	JAseePR10	25	500	0	
090607	09:59	801	PR10 camel	26	3981	picture	
090607	09:59	801	JAPR10	27	2021	8	
090607	09:59	801	JAseePR15	28	500	0	
090607	09:59	801	PR15 depletion	29	2573	smell	
090607	09:59	801	JAPR15	30	1740	7	
090607	09:59	801	JAseePR20	31	500	0	
090607	09:59	801	PR20 advertisement	32	10784	response	
090607	09:59	801	JAPR20	33	1724	7	
090607	09:59	801	JAseePR29	34	500	0	
090607	09:59	801	PR29 mermaid	35	3161	moon	
090607	09:59	801	JAPR29	36	3298	8	
090607	09:59	801	JAseePR16	37	500	0	
090607	09:59	801	PR16 compulsion	38	3506	nice	
090607	09:59	801	JAPR16	39	3946	8	
090607	09:59	801	JAseePR22	40	500	0	
090607	09:59	801	PR22 ass	41	5023	guess	
090607	09:59	801	JAPR22	42	4194	4	
090607	09:59	801	JAseeUR43	1	500	0	
090607	09:59	801	UR43 balloon	2	5496	balloon	
090607	09:59	801	JAUR43	3	4609	6	
090607	09:59	801	JAseeUR102	4	500	0	
090607	09:59	801	UR102 velocity	5	6972	winner	
090607	09:59	801	JAUR102	6	1376	4	
090607	09:59	801	JAseeHL08	7	500	0	
090607	09:59	801	HL08 math	8	3068	guess	
090607	09:59	801	JAHL08	9	1031	7	
090607	09:59	801	JAseeLH13	10	500	0	
090607	09:59	801	LH13 crease	11	7064	needle	
090607	09:59	801	JALH13	12	1988	8	
090607	09:59	801	JAseeLH08	13	500	0	
090607	09:59	801	LH08 house	14	2152	house	
090607	09:59	801	JALH08	15	3221	9	
090607	09:59	801	JAseeUR71	16	500	0	
090607	09:59	801	UR71 padding	17	4443	guess	
090607	09:59	801	JAUR71	18	763	7	
090607	09:59	801	JAseeUR25	19	500	0	
090607	09:59	801	UR25 partner	20	2178	food	
090607	09:59	801	JAUR25	21	1373	7	
090607	09:59	801	JAseeLH47	22	500	0	
090607	09:59	801	LH47 detergent	23	4407	rich	
090607	09:59	801	JALH47	24	2979	9	
090607	09:59	801	JAseeLH36	25	500	0	
090607	09:59	801	LH36 gang	26	2719	pirate	
090607	09:59	801	JALH36	27	1908	9	
090607	09:59	801	JAseeHL15	28	500	0	
090607	09:59	801	HL15 bomb	29	4545	science	
090607	09:59	801	JAHL15	30	2219	7	
090607	09:59	801	JAseeUR84	31	500	0	
090607	09:59	801	UR84 flag	32	1201	hot	
090607	09:59	801	JAUR84	33	2656	6	
090607	09:59	801	JAseeHL29	34	500	0	
090607	09:59	801	HL29 ring	35	1695	ring	
090607	09:59	801	JAHL29	36	764	8	
090607	09:59	801	JAseeLH29	37	500	0	
090607	09:59	801	LH29 closet	38	2169	closet	
090607	09:59	801	JALH29	39	3326	3	
090607	09:59	801	JAseeLH52	40	500	0	
090607	09:59	801	LH52 bureau	41	2731	guess	
090607	09:59	801	JALH52	42	3914	9	
090607	09:59	801	JAseeLH48	43	500	0	
090607	09:59	801	LH48 outcome	44	5598	talk	
090607	09:59	801	JALH48	45	4049	8	
090607	09:59	801	JAseeUR29	46	500	0	
090607	09:59	801	UR29 patrol	47	3617	guess	
090607	09:59	801	JAUR29	48	1576	6	
090607	09:59	801	JAseeLH28	49	500	0	
090607	09:59	801	LH28 vagrant	50	4325	poor	
090607	09:59	801	JALH28	51	4258	7	
090607	09:59	801	JAseeHL52	52	500	0	
090607	09:59	801	HL52 sand	53	1734	sand	
090607	09:59	801	JAHL52	54	1976	9	
090607	09:59	801	JAseeHL44	55	500	0	
090607	09:59	801	HL44 baseball	56	2355	baseball	
090607	09:59	801	JAHL44	57	2237	8	
090607	09:59	801	JAseeUR37	58	500	0	
090607	09:59	801	UR37 cloth	59	3366	clothes	
090607	09:59	801	JAUR37	60	2815	7	
090607	09:59	801	JAseeUR81	61	500	0	
090607	09:59	801	UR81 acid	62	8482	guess	
090607	09:59	801	JAUR81	63	7215	9	
090607	09:59	801	JAseeUR88	64	500	0	
090607	09:59	801	UR88 circus	65	3026	town	
090607	09:59	801	JAUR88	66	1672	7	
090607	09:59	801	JAseeLH34	67	500	0	
090607	09:59	801	LH34 panel	68	1887	panel	
090607	09:59	801	JALH34	69	441	4	
090607	09:59	801	JAseeHL54	70	500	0	
090607	09:59	801	HL54 indian	71	2740	indian	
090607	09:59	801	JAHL54	72	1302	5	
090607	09:59	801	JAseeUR48	73	500	0	
090607	09:59	801	UR48 democracy	74	8217	democracy	
090607	09:59	801	JAUR48	75	3818	6	
090607	09:59	801	JAseeUR40	76	500	0	
090607	09:59	801	UR40 dancer	77	4475	guess	
090607	09:59	801	JAUR40	78	880	6	
090607	09:59	801	JAseeHL38	79	500	0	
090607	09:59	801	HL38 boat	80	1572	boat	
090607	09:59	801	JAHL38	81	489	7	
090607	09:59	801	JAseeLH18	82	500	0	
090607	09:59	801	LH18 edge	83	3463	edge	
090607	09:59	801	JALH18	84	1845	8	
090607	09:59	801	JAseeUR89	85	500	0	
090607	09:59	801	UR89 crow	86	5798	guess	
090607	09:59	801	JAUR89	87	3088	6	
090607	09:59	801	JAseeUR18	88	500	0	
090607	09:59	801	UR18 relief	89	3193	relief	
090607	09:59	801	JAUR18	90	2732	6	
090607	09:59	801	JAseeUR80	91	500	0	
090607	09:59	801	UR80 antique	92	2663	guess	
090607	09:59	801	JAUR80	93	1913	5	
090607	09:59	801	JAseeUR15	94	500	0	
090607	09:59	801	UR15 compass	95	3972	love	
090607	09:59	801	JAUR15	96	1509	7	
090607	09:59	801	JAseeUR08	97	500	0	
090607	09:59	801	UR08 assistant	98	9486	guess	
090607	09:59	801	JAUR08	99	1512	6	
090607	09:59	801	JAseeUR94	100	500	0	
090607	09:59	801	UR94 bristle	101	5494	bag	
090607	09:59	801	JAUR94	102	1232	6	
090607	09:59	801	JAseeUR61	103	500	0	
090607	09:59	801	UR61 suicide	104	4917	guess	
090607	09:59	801	JAUR61	105	1133	6	
090607	09:59	801	JAseeUR05	106	500	0	
090607	09:59	801	UR05 lease	107	2211	lease	
090607	09:59	801	JAUR05	108	2481	4	
090607	09:59	801	JAseeHL28	109	500	0	
090607	09:59	801	HL28 bird	110	2024	bird	
090607	09:59	801	JAHL28	111	2520	5	
090607	09:59	801	JAseeUR73	112	500	0	
090607	09:59	801	UR73 kite	113	3339	nose	
090607	09:59	801	JAUR73	114	4725	3	
090607	09:59	801	JAseeUR79	115	500	0	
090607	09:59	801	UR79 beetle	116	2166	food	
090607	09:59	801	JAUR79	117	3575	9	
090607	09:59	801	JAseeUR31	118	500	0	
090607	09:59	801	UR31 diameter	119	5229	time	
090607	09:59	801	JAUR31	120	2279	4	
090607	09:59	801	JAseeUR26	121	500	0	
090607	09:59	801	UR26 eternity	122	5563	eternity	
090607	09:59	801	JAUR26	123	958	3	
090607	09:59	801	JAseeLH21	124	500	0	
090607	09:59	801	LH21 monument	125	3232	moment	
090607	09:59	801	JALH21	126	5547	6	
090607	09:59	801	JAseeHL48	127	500	0	
090607	09:59	801	HL48 airplane	128	4900	airplane	
090607	09:59	801	JAHL48	129	3412	7	
090607	09:59	801	JAseeLH10	130	500	0	
090607	09:59	801	LH10 care	131	1362	care	
090607	09:59	801	JALH10	132	1545	9	
090607	09:59	801	JAseeLH31	133	500	0	
090607	09:59	801	LH31 self	134	2168	self	
090607	09:59	801	JALH31	135	1627	3	
090607	09:59	801	JAseeUR38	136	500	0	
090607	09:59	801	UR38 energy	137	4301	energy	
090607	09:59	801	JAUR38	138	2004	3	
090607	09:59	801	JAseeUR86	139	500	0	
090607	09:59	801	UR86 boulevard	140	5844	guess	
090607	09:59	801	JAUR86	141	1371	9	
090607	09:59	801	JAseeUR90	142	500	0	
090607	09:59	801	UR90 sailing	143	4559	money	
090607	09:59	801	JAUR90	144	1406	7	
090607	09:59	801	JAseeHL30	145	500	0	
090607	09:59	801	HL30 air	146	2180	mad	
090607	09:59	801	JAHL30	147	1763	8	
090607	09:59	801	JAseeUR57	148	500	0	
090607	09:59	801	UR57 benefit	149	2470	muffin	
090607	09:59	801	JAUR57	150	953	3	
090607	09:59	801	JAseeLH12	151	500	0	
090607	09:59	801	LH12 addition	152	4792	addition	
090607	09:59	801	JALH12	153	2175	6	
090607	09:59	801	JAseeHL04	154	500	0	
090607	09:59	801	HL04 beer	155	3964	war	
090607	09:59	801	JAHL04	156	1208	3	
090607	09:59	801	JAseeUR11	157	500	0	
090607	09:59	801	UR11 foundation	158	5463	number	
090607	09:59	801	JAUR11	159	1196	7	
090607	09:59	801	JAseeLH33	160	500	0	
090607	09:59	801	LH33 fable	161	7834	fiction	
090607	09:59	801	JALH33	162	1597	8	
090607	09:59	801	JAseeHL11	163	500	0	
090607	09:59	801	HL11 rock	164	1509	rock	
090607	09:59	801	JAHL11	165	2348	8	
090607	09:59	801	JAseeLH06	166	500	0	
090607	09:59	801	LH06 element	167	4818	element	
090607	09:59	801	JALH06	168	1127	4	
090607	09:59	801	JAseeHL37	169	500	0	
090607	09:59	801	HL37 thread	170	2023	thread	
090607	09:59	801	JAHL37	171	1128	8	
090607	09:59	801	JAseeLH44	172	500	0	
090607	09:59	801	LH44 vessel	173	3192	vessel	
090607	09:59	801	JALH44	174	420	6	
090607	09:59	801	JAseeLH39	175	500	0	
090607	09:59	801	LH39 reward	176	3896	paper	
090607	09:59	801	JALH39	177	696	6	
090607	09:59	801	JAseeLH49	178	500	0	
090607	09:59	801	LH49 kindness	179	4573	kindness	
090607	09:59	801	JALH49	180	3476	8	
090607	09:59	801	JAseeUR39	181	500	0	
090607	09:59	801	UR39 faith	182	1872	faith	
090607	09:59	801	JAUR39	183	1598	8	
090607	09:59	801	JAseeUR33	184	500	0	
090607	09:59	801	UR33 horror	185	3554	horror	
090607	09:59	801	JAUR33	186	548	6	
090607	09:59	801	JAseeUR02	187	500	0	
090607	09:59	801	UR02 comma	188	5044	moon	
090607	09:59	801	JAUR02	189	2492	6	
090607	09:59	801	JAseeUR93	190	500	0	
090607	09:59	801	UR93 catcher	191	4491	guess	
090607	09:59	801	JAUR93	192	1259	4	
090607	09:59	801	JAseeHL19	193	500	0	
090607	09:59	801	HL19 car	194	6025	bird	
090607	09:59	801	JAHL19	195	2824	8	
090607	09:59	801	JAseeUR49	196	500	0	
090607	09:59	801	UR49 casket	197	1773	money	
090607	09:59	801	JAUR49	198	1507	8	
090607	09:59	801	JAseeHL35	199	500	0	
090607	09:59	801	HL35 cake	200	2518	cake	
090607	09:59	801	JAHL35	201	710	6	
090607	09:59	801	JAseeUR44	202	500	0	
090607	09:59	801	UR44 rot	203	5642	jewlrey	
090607	09:59	801	JAUR44	204	1736	8	
090607	09:59	801	JAseeUR91	205	500	0	
090607	09:59	801	UR91 anteater	206	4362	bug	
090607	09:59	801	JAUR91	207	2372	6	
090607	09:59	801	JAseeHL46	208	500	0	
090607	09:59	801	HL46 butter	209	1853	butter	
090607	09:59	801	JAHL46	210	1026	8	
090607	09:59	801	JAseeUR09	211	500	0	
090607	09:59	801	UR09 education	212	3038	education	
090607	09:59	801	JAUR09	213	1568	7	
090607	09:59	801	JAseeUR83	214	500	0	
090607	09:59	801	UR83 lesson	215	1806	lesson	
090607	09:59	801	JAUR83	216	1464	7	
090607	09:59	801	JAseeHL18	217	500	0	
090607	09:59	801	HL18 paper	218	2961	paper	
090607	09:59	801	JAHL18	219	2010	4	
090607	09:59	801	JAseeLH16	220	500	0	
090607	09:59	801	LH16 power	221	3723	skill	
090607	09:59	801	JALH16	222	1560	4	
090607	09:59	801	JAseeHL06	223	500	0	
090607	09:59	801	HL06 egg	224	3344	animal	
090607	09:59	801	JAHL06	225	1530	3	
090607	09:59	801	JAseeHL20	226	500	0	
090607	09:59	801	HL20 wine	227	1611	wine	
090607	09:59	801	JAHL20	228	1881	7	
090607	09:59	801	JAseeHL26	229	500	0	
090607	09:59	801	HL26 light	230	2315	fight	
090607	09:59	801	JAHL26	231	1228	4	
090607	09:59	801	JAseeLH42	232	500	0	
090607	09:59	801	LH42 thought	233	1655	thought	
090607	09:59	801	JALH42	234	1163	3	
090607	09:59	801	JAseeUR41	235	500	0	
090607	09:59	801	UR41 chime	236	2903	cold	
090607	09:59	801	JAUR41	237	1290	7	
090607	09:59	801	JAseePR18	238	500	0	
090607	09:59	801	PR18 clorox	239	3680	guess	
090607	09:59	801	JAPR18	240	1015	3	
090607	09:59	801	JAseeLH35	241	500	0	
090607	09:59	801	LH35 shelter	242	3071	shelter	
090607	09:59	801	JALH35	243	1812	7	
090607	09:59	801	JAseeUR16	244	500	0	
090607	09:59	801	UR16 century	245	2319	moeny	
090607	09:59	801	JAUR16	246	1277	5	
090607	09:59	801	JAseeUR108	247	500	0	
090607	09:59	801	UR108 shield	248	3196	guess	
090607	09:59	801	JAUR108	249	536	9	
090607	09:59	801	JAseeHL12	250	500	0	
090607	09:59	801	HL12 space	251	2786	space	
090607	09:59	801	JAHL12	252	1072	8	
090607	09:59	801	JAseeUR23	253	500	0	
090607	09:59	801	UR23 abundance	254	4164	guess	
090607	09:59	801	JAUR23	255	340	4	
090607	09:59	801	JAseeUR104	256	500	0	
090607	09:59	801	UR104 aardvark	257	7107	letter	
090607	09:59	801	JAUR104	258	2424	7	
090607	09:59	801	JAseeUR56	259	500	0	
090607	09:59	801	UR56 antler	260	4196	guess	
090607	09:59	801	JAUR56	261	615	4	
090607	09:59	801	JAseeHL16	262	500	0	
090607	09:59	801	HL16 broom	263	1857	broom	
090607	09:59	801	JAHL16	264	520	7	
090607	09:59	801	JAseeHL40	265	500	0	
090607	09:59	801	HL40 temperature	266	3164	temperature	
090607	09:59	801	JAHL40	267	513	9	
090607	09:59	801	JAseeUR101	268	500	0	
090607	09:59	801	UR101 beard	269	2178	guess	
090607	09:59	801	JAUR101	270	1951	8	
090607	09:59	801	JAseeLH45	271	500	0	
090607	09:59	801	LH45 intellect	272	4801	intellegent	
090607	09:59	801	JALH45	273	1242	5	
090607	09:59	801	JAseeUR92	274	500	0	
090607	09:59	801	UR92 dart	275	2892	scare	
090607	09:59	801	JAUR92	276	1035	4	
090607	09:59	801	JAseeUR19	277	500	0	
090607	09:59	801	UR19 bison	278	3203	game	
090607	09:59	801	JAUR19	279	1778	5	
090607	09:59	801	JAseeUR99	280	500	0	
090607	09:59	801	UR99 branch	281	2501	branch	
090607	09:59	801	JAUR99	282	522	5	
090607	09:59	801	JAseeUR10	283	500	0	
090607	09:59	801	UR10 tribe	284	3535	animal	
090607	09:59	801	JAUR10	285	1277	4	
090607	09:59	801	JAseeUR72	286	500	0	
090607	09:59	801	UR72 band	287	6478	bannana	
090607	09:59	801	JAUR72	288	600	7	
090607	09:59	801	JAseeUR100	289	500	0	
090607	09:59	801	UR100 comb	290	2602	combine	
090607	09:59	801	JAUR100	291	1910	8	
090607	09:59	801	JAseeLH26	292	500	0	
090607	09:59	801	LH26 center	293	2938	center	
090607	09:59	801	JALH26	294	701	7	
090607	09:59	801	JAseeUR03	295	500	0	
090607	09:59	801	UR03 vehicle	296	2395	guess	
090607	09:59	801	JAUR03	297	1445	5	
090607	09:59	801	JAseeHL22	298	500	0	
090607	09:59	801	HL22 problem	299	3284	problem	
090607	09:59	801	JAHL22	300	1872	3	
090607	09:59	801	JAseeLH15	301	500	0	
090607	09:59	801	LH15 blessing	302	2037	blessing	
090607	09:59	801	JALH15	303	2232	6	
090607	09:59	801	JAseeHL27	304	500	0	
090607	09:59	801	HL27 rain	305	1609	rain	
090607	09:59	801	JAHL27	306	1623	7	
090607	09:59	801	JAseeHL02	307	500	0	
090607	09:59	801	HL02 flower	308	2636	flower	
090607	09:59	801	JAHL02	309	2436	5	
090607	09:59	801	JAseeLH41	310	500	0	
090607	09:59	801	LH41 girl	311	1675	girl	
090607	09:59	801	JALH41	312	405	6	
090607	09:59	801	JAseeHL13	313	500	0	
090607	09:59	801	HL13 map	314	2673	map	
090607	09:59	801	JAHL13	315	1742	6	
090607	09:59	801	JAseeUR97	316	500	0	
090607	09:59	801	UR97 banner	317	1990	eat	
090607	09:59	801	JAUR97	318	1080	4	
090607	09:59	801	JAseeLH40	319	500	0	
090607	09:59	801	LH40 field	320	7056	field	
090607	09:59	801	JALH40	321	1687	3	
090607	09:59	801	JAseeUR51	322	500	0	
090607	09:59	801	UR51 cabbage	323	2416	guess	
090607	09:59	801	JAUR51	324	1237	4	
090607	09:59	801	JAseeUR12	325	500	0	
090607	09:59	801	UR12 unicorn	326	4698	guess	
090607	09:59	801	JAUR12	327	970	8	
