date	time	subject	trialcode	trialnum	latency	response	
090607	10:03	803	JAseePR17	1	500	0	
090607	10:03	803	PR17 emerald	2	16347	cat	
090607	10:03	803	JAPR17	3	15590	3	
090607	10:03	803	JAseePR27	4	500	0	
090607	10:03	803	PR27 wheat	5	12792	control	
090607	10:03	803	JAPR27	6	10224	4	
090607	10:03	803	JAseePR07	7	500	0	
090607	10:03	803	PR07 bog	8	10068	guess	
090607	10:03	803	JAPR07	9	3639	1	
090607	10:03	803	JAseePR23	10	500	0	
090607	10:03	803	PR23 companion	11	13414	comunity	
090607	10:03	803	JAPR23	12	6635	3	
090607	10:03	803	JAseePR06	13	500	0	
090607	10:03	803	PR06 beast	14	7226	beast	
090607	10:03	803	JAPR06	15	3294	8	
090607	10:03	803	JAseePR09	16	500	0	
090607	10:03	803	PR09 album	17	5534	alarm	
090607	10:03	803	JAPR09	18	2018	5	
090607	10:03	803	JAseePR21	19	500	0	
090607	10:03	803	PR21 innocence	20	12086	control	
090607	10:03	803	JAPR21	21	4782	4	
090607	10:03	803	JAseePR01	22	500	0	
090607	10:03	803	PR01 cash	23	14919	nut	
090607	10:03	803	JAPR01	24	6664	3	
090607	10:03	803	JAseePR11	25	500	0	
090607	10:03	803	PR11 ounce	26	3683	uncle	
090607	10:03	803	JAPR11	27	2577	3	
090607	10:03	803	JAseePR25	28	500	0	
090607	10:03	803	PR25 saliva	29	6625	cracker	
090607	10:03	803	JAPR25	30	3175	8	
090607	10:03	803	JAseePR30	31	500	0	
090607	10:03	803	PR30 maiden	32	4436	control	
090607	10:03	803	JAPR30	33	2057	2	
090607	10:03	803	JAseePR03	34	500	0	
090607	10:03	803	PR03 acre	35	16973	control	
090607	10:03	803	JAPR03	36	4266	2	
090607	10:03	803	JAseePR13	37	500	0	
090607	10:03	803	PR13 ambition	38	22092	culture	
090607	10:03	803	JAPR13	39	3084	4	
090607	10:03	803	JAseePR04	40	500	0	
090607	10:03	803	PR04 diaper	41	6221	diaper	
090607	10:03	803	JAPR04	42	1308	2	
090607	10:03	803	JAseeUR53	1	500	0	
090607	10:03	803	UR53 hell	2	4917	CHICKEN	
090607	10:03	803	JAUR53	3	1412	2	
090607	10:03	803	JAseeUR13	4	500	0	
090607	10:03	803	UR13 almanac	5	9270	PORTHOLE	
090607	10:03	803	JAUR13	6	3270	3	
090607	10:03	803	JAseeHL07	7	500	0	
090607	10:03	803	HL07 king	8	8253	king	
090607	10:03	803	JAHL07	9	5937	3	
090607	10:03	803	JAseeLH05	10	500	0	
090607	10:03	803	LH05 chain	11	3136	chain	
090607	10:03	803	JALH05	12	1767	3	
090607	10:03	803	JAseeLH02	13	500	0	
090607	10:03	803	LH02 harm	14	7912	crash	
090607	10:03	803	JALH02	15	3272	3	
090607	10:03	803	JAseeUR64	16	500	0	
090607	10:03	803	UR64 fist	17	7921	money	
090607	10:03	803	JAUR64	18	2061	3	
090607	10:03	803	JAseeUR32	19	500	0	
090607	10:03	803	UR32 navigator	20	6294	navigator	
090607	10:03	803	JAUR32	21	2126	3	
090607	10:03	803	JAseeLH50	22	500	0	
090607	10:03	803	LH50 measure	23	9355	regular	
090607	10:03	803	JALH50	24	1776	3	
090607	10:03	803	JAseeLH27	25	500	0	
090607	10:03	803	LH27 condition	26	4318	advantage	
090607	10:03	803	JALH27	27	8420	3	
090607	10:03	803	JAseeHL17	28	500	0	
090607	10:03	803	HL17 soap	29	8439	soap	
090607	10:03	803	JAHL17	30	2176	3	
090607	10:03	803	JAseeUR74	31	500	0	
090607	10:03	803	UR74 suitcase	32	8202	horizon	
090607	10:03	803	JAUR74	33	5663	3	
090607	10:03	803	JAseeHL36	34	500	0	
090607	10:03	803	HL36 football	35	4763	nasa	
090607	10:03	803	JAHL36	36	6267	4	
090607	10:03	803	JAseeLH20	37	500	0	
090607	10:03	803	LH20 violation	38	6571	violation	
090607	10:03	803	JALH20	39	1814	3	
090607	10:03	803	JAseeLH54	40	500	0	
090607	10:03	803	LH54 limit	41	7617	hunt	
090607	10:03	803	JALH54	42	1528	5	
090607	10:03	803	JAseeLH51	43	500	0	
090607	10:03	803	LH51 exit	44	2912	lamp	
090607	10:03	803	JALH51	45	2225	3	
090607	10:03	803	JAseeUR35	46	500	0	
090607	10:03	803	UR35 cause	47	4420	nothing	
090607	10:03	803	JAUR35	48	1400	3	
090607	10:03	803	JAseeLH19	49	500	0	
090607	10:03	803	LH19 snob	50	6691	kleenex	
090607	10:03	803	JALH19	51	2020	3	
090607	10:03	803	JAseeHL51	52	500	0	
090607	10:03	803	HL51 color	53	4534	nothing	
090607	10:03	803	JAHL51	54	1994	4	
090607	10:03	803	JAseeHL47	55	500	0	
090607	10:03	803	HL47 horse	56	3829	texas	
090607	10:03	803	JAHL47	57	1802	3	
090607	10:03	803	JAseeUR45	58	500	0	
090607	10:03	803	UR45 bridge	59	4442	wedding	
090607	10:03	803	JAUR45	60	597	1	
090607	10:03	803	JAseeUR69	61	500	0	
090607	10:03	803	UR69 flashlight	62	6136	sundae	
090607	10:03	803	JAUR69	63	1580	1	
090607	10:03	803	JAseeUR76	64	500	0	
090607	10:03	803	UR76 dignity	65	5127	nothing	
090607	10:03	803	JAUR76	66	1381	1	
090607	10:03	803	JAseeLH24	67	500	0	
090607	10:03	803	LH24 feeling	68	5318	faith	
090607	10:03	803	JALH24	69	1067	2	
090607	10:03	803	JAseeHL53	70	500	0	
090607	10:03	803	HL53 fish	71	4095	fishing	
090607	10:03	803	JAHL53	72	4851	3	
090607	10:03	803	JAseeUR55	73	500	0	
090607	10:03	803	UR55 bargain	74	4916	church	
090607	10:03	803	JAUR55	75	1669	3	
090607	10:03	803	JAseeUR50	76	500	0	
090607	10:03	803	UR50 crane	77	16193	hate	
090607	10:03	803	JAUR50	78	4351	3	
090607	10:03	803	JAseeHL43	79	500	0	
090607	10:03	803	HL43 money	80	2833	money	
090607	10:03	803	JAHL43	81	2013	3	
090607	10:03	803	JAseeLH11	82	500	0	
090607	10:03	803	LH11 cancer	83	5851	cancer	
090607	10:03	803	JALH11	84	1867	3	
090607	10:03	803	JAseeUR77	85	500	0	
090607	10:03	803	UR77 uncle	86	8705	college	
090607	10:03	803	JAUR77	87	1682	3	
090607	10:03	803	JAseeUR27	88	500	0	
090607	10:03	803	UR27 consequence	89	3562	morals	
090607	10:03	803	JAUR27	90	6816	3	
090607	10:03	803	JAseeUR68	91	500	0	
090607	10:03	803	UR68 fatigue	92	8446	plumber	
090607	10:03	803	JAUR68	93	2423	2	
090607	10:03	803	JAseeUR22	94	500	0	
090607	10:03	803	UR22 thesaurus	95	7404	homerun	
090607	10:03	803	JAUR22	96	1443	2	
090607	10:03	803	JAseeUR07	97	500	0	
090607	10:03	803	UR07 gathering	98	3879	painful	
090607	10:03	803	JAUR07	99	1322	2	
090607	10:03	803	JAseeUR95	100	500	0	
090607	10:03	803	UR95 fool	101	6369	Blake	
090607	10:03	803	JAUR95	102	2805	3	
090607	10:03	803	JAseeUR63	103	500	0	
090607	10:03	803	UR63 alley	104	6894	purifier	
090607	10:03	803	JAUR63	105	2097	3	
090607	10:03	803	JAseeUR06	106	500	0	
090607	10:03	803	UR06 cello	107	6262	confusion	
090607	10:03	803	JAUR06	108	1838	3	
090607	10:03	803	JAseeHL34	109	500	0	
090607	10:03	803	HL34 hunger	110	3446	hunger	
090607	10:03	803	JAHL34	111	2470	6	
090607	10:03	803	JAseeUR66	112	500	0	
090607	10:03	803	UR66 chief	113	8267	lunch	
090607	10:03	803	JAUR66	114	1453	2	
090607	10:03	803	JAseeUR67	115	500	0	
090607	10:03	803	UR67 producer	116	6781	contradiction	
090607	10:03	803	JAUR67	117	4152	2	
090607	10:03	803	JAseeUR36	118	500	0	
090607	10:03	803	UR36 denim	119	8691	nothing	
090607	10:03	803	JAUR36	120	6840	2	
090607	10:03	803	JAseeUR34	121	500	0	
090607	10:03	803	UR34 charity	122	3627	control	
090607	10:03	803	JAUR34	123	26446	2	
090607	10:03	803	JAseeLH14	124	500	0	
090607	10:03	803	LH14 note	125	7755	baseball	
090607	10:03	803	JALH14	126	4981	2	
090607	10:03	803	JAseeHL50	127	500	0	
090607	10:03	803	HL50 doctor	128	5292	stars	
090607	10:03	803	JAHL50	129	6419	2	
090607	10:03	803	JAseeLH03	130	500	0	
090607	10:03	803	LH03 yard	131	6796	shoes	
090607	10:03	803	JALH03	132	12232	2	
090607	10:03	803	JAseeLH22	133	500	0	
090607	10:03	803	LH22 crowd	134	4865	crowd	
090607	10:03	803	JALH22	135	879	2	
090607	10:03	803	JAseeUR46	136	500	0	
090607	10:03	803	UR46 content	137	11725	water	
090607	10:03	803	JAUR46	138	1066	2	
090607	10:03	803	JAseeUR75	139	500	0	
090607	10:03	803	UR75 awe	140	4952	murder	
090607	10:03	803	JAUR75	141	1342	2	
090607	10:03	803	JAseeUR78	142	500	0	
090607	10:03	803	UR78 blender	143	3665	blender	
090607	10:03	803	JAUR78	144	570	2	
090607	10:03	803	JAseeHL39	145	500	0	
090607	10:03	803	HL39 book	146	5787	child	
090607	10:03	803	JAHL39	147	1757	2	
090607	10:03	803	JAseeUR62	148	500	0	
090607	10:03	803	UR62 chemistry	149	11445	chemist	
090607	10:03	803	JAUR62	150	3567	8	
090607	10:03	803	JAseeLH04	151	500	0	
090607	10:03	803	LH04 grade	152	6940	gouge	
090607	10:03	803	JALH04	153	1751	2	
090607	10:03	803	JAseeHL03	154	500	0	
090607	10:03	803	HL03 cigarette	155	6517	cancer	
090607	10:03	803	JAHL03	156	1751	2	
090607	10:03	803	JAseeUR20	157	500	0	
090607	10:03	803	UR20 climax	158	6920	clearance	
090607	10:03	803	JAUR20	159	1774	3	
090607	10:03	803	JAseeLH23	160	500	0	
090607	10:03	803	LH23 possibility	161	10422	possibility	
090607	10:03	803	JALH23	162	4248	2	
090607	10:03	803	JAseeHL09	163	500	0	
090607	10:03	803	HL09 chalk	164	3354	chalk	
090607	10:03	803	JAHL09	165	1699	2	
090607	10:03	803	JAseeLH01	166	500	0	
090607	10:03	803	LH01 brain	167	2962	brain	
090607	10:03	803	JALH01	168	1383	2	
090607	10:03	803	JAseeHL42	169	500	0	
090607	10:03	803	HL42 pie	170	8682	plate	
090607	10:03	803	JAHL42	171	3140	3	
090607	10:03	803	JAseeLH43	172	500	0	
090607	10:03	803	LH43 noise	173	11002	hill country	
090607	10:03	803	JALH43	174	3582	2	
090607	10:03	803	JAseeLH30	175	500	0	
090607	10:03	803	LH30 assignment	176	5968	assignment	
090607	10:03	803	JALH30	177	2003	4	
090607	10:03	803	JAseeLH53	178	500	0	
090607	10:03	803	LH53 core	179	5569	destiny	
090607	10:03	803	JALH53	180	1725	4	
090607	10:03	803	JAseeUR47	181	500	0	
090607	10:03	803	UR47 chimpanzee	182	8053	christmas	
090607	10:03	803	JAUR47	183	6757	3	
090607	10:03	803	JAseeUR42	184	500	0	
090607	10:03	803	UR42 sergeant	185	5399	paid	
090607	10:03	803	JAUR42	186	439	3	
090607	10:03	803	JAseeUR01	187	500	0	
090607	10:03	803	UR01 file	188	6770	manicure	
090607	10:03	803	JAUR01	189	1660	3	
090607	10:03	803	JAseeUR87	190	500	0	
090607	10:03	803	UR87 duty	191	16065	snow white	
090607	10:03	803	JAUR87	192	1609	2	
090607	10:03	803	JAseeHL24	193	500	0	
090607	10:03	803	HL24 eye	194	7520	habitat	
090607	10:03	803	JAHL24	195	8484	3	
090607	10:03	803	JAseeUR58	196	500	0	
090607	10:03	803	UR58 answer	197	7467	hard	
090607	10:03	803	JAUR58	198	1302	3	
090607	10:03	803	JAseeHL41	199	500	0	
090607	10:03	803	HL41 hand	200	5069	house	
090607	10:03	803	JAHL41	201	760	5	
090607	10:03	803	JAseeUR54	202	500	0	
090607	10:03	803	UR54 steam	203	4023	stream	
090607	10:03	803	JAUR54	204	1671	2	
090607	10:03	803	JAseeUR82	205	500	0	
090607	10:03	803	UR82 campus	206	4530	campus	
090607	10:03	803	JAUR82	207	742	2	
090607	10:03	803	JAseeHL49	208	500	0	
090607	10:03	803	HL49 spice	209	2930	spice	
090607	10:03	803	JAHL49	210	596	6	
090607	10:03	803	JAseeUR103	211	500	0	
090607	10:03	803	UR103 hula	212	5636	central	
090607	10:03	803	JAUR103	213	600	3	
090607	10:03	803	JAseeUR70	214	500	0	
090607	10:03	803	UR70 pajamas	215	4265	kitchen	
090607	10:03	803	JAUR70	216	3944	3	
090607	10:03	803	JAseeHL23	217	500	0	
090607	10:03	803	HL23 baby	218	4135	meat	
090607	10:03	803	JAHL23	219	8672	6	
090607	10:03	803	JAseeLH09	220	500	0	
090607	10:03	803	LH09 piece	221	4349	thong	
090607	10:03	803	JALH09	222	2310	2	
090607	10:03	803	JAseeHL05	223	500	0	
090607	10:03	803	HL05 mountain	224	4889	mountain	
090607	10:03	803	JAHL05	225	16623	3	
090607	10:03	803	JAseeHL25	226	500	0	
090607	10:03	803	HL25 cut	227	3220	cut	
090607	10:03	803	JAHL25	228	33073	2	
090607	10:03	803	JAseeHL32	229	500	0	
090607	10:03	803	HL32 television	230	7355	confused	
090607	10:03	803	JAHL32	231	3010	1	
090607	10:03	803	JAseeLH38	232	500	0	
090607	10:03	803	LH38 paint	233	5593	pain	
090607	10:03	803	JALH38	234	2735	2	
090607	10:03	803	JAseeUR52	235	500	0	
090607	10:03	803	UR52 knight	236	8722	safety	
090607	10:03	803	JAUR52	237	47771	3	
090607	10:03	803	JAseePR28	238	500	0	
090607	10:03	803	PR28 challenge	239	8813	chimpanzee	
090607	10:03	803	JAPR28	240	2159	2	
090607	10:03	803	JAseeLH25	241	500	0	
090607	10:03	803	LH25 track	242	5387	attack	
090607	10:03	803	JALH25	243	2028	2	
090607	10:03	803	JAseeUR24	244	500	0	
090607	10:03	803	UR24 kid	245	3863	family	
090607	10:03	803	JAUR24	246	458	3	
090607	10:03	803	JAseeUR17	247	500	0	
090607	10:03	803	UR17 trance	248	3094	pirate	
090607	10:03	803	JAUR17	249	2415	2	
090607	10:03	803	JAseeHL10	250	500	0	
090607	10:03	803	HL10 cow	251	9768	cow	
090607	10:03	803	JAHL10	252	1465	2	
090607	10:03	803	JAseeUR30	253	500	0	
090607	10:03	803	UR30 lover	254	3392	cancer	
090607	10:03	803	JAUR30	255	2216	7	
090607	10:03	803	JAseeUR14	256	500	0	
090607	10:03	803	UR14 fudge	257	4221	prisoner	
090607	10:03	803	JAUR14	258	1261	2	
090607	10:03	803	JAseeUR60	259	500	0	
090607	10:03	803	UR60 plaque	260	4348	ship	
090607	10:03	803	JAUR60	261	1413	3	
090607	10:03	803	JAseeHL21	262	500	0	
090607	10:03	803	HL21 empire	263	5369	castle	
090607	10:03	803	JAHL21	264	1107	2	
090607	10:03	803	JAseeHL45	265	500	0	
090607	10:03	803	HL45 words	266	4865	CULTURE	
090607	10:03	803	JAHL45	267	1635	2	
090607	10:03	803	JAseeUR107	268	500	0	
090607	10:03	803	UR107 cocaine	269	27560	phobic	
090607	10:03	803	JAUR107	270	1467	2	
090607	10:03	803	JAseeLH46	271	500	0	
090607	10:03	803	LH46 submarine	272	8321	guacomole	
090607	10:03	803	JALH46	273	2348	3	
090607	10:03	803	JAseeUR85	274	500	0	
090607	10:03	803	UR85 stroke	275	4819	stroke	
090607	10:03	803	JAUR85	276	2286	4	
090607	10:03	803	JAseeUR28	277	500	0	
090607	10:03	803	UR28 bang	278	9410	hopper	
090607	10:03	803	JAUR28	279	41192	2	
090607	10:03	803	JAseeUR98	280	500	0	
090607	10:03	803	UR98 latch	281	4718	cruise	
090607	10:03	803	JAUR98	282	2825	2	
090607	10:03	803	JAseeUR105	283	500	0	
090607	10:03	803	UR105 curtain	284	8654	doctor	
090607	10:03	803	JAUR105	285	333	4	
090607	10:03	803	JAseeUR65	286	500	0	
090607	10:03	803	UR65 checkers	287	5231	swiss	
090607	10:03	803	JAUR65	288	625	4	
090607	10:03	803	JAseeUR106	289	500	0	
090607	10:03	803	UR106 eagle	290	5226	painful	
090607	10:03	803	JAUR106	291	1173	2	
090607	10:03	803	JAseeLH17	292	500	0	
090607	10:03	803	LH17 life	293	2582	old	
090607	10:03	803	JALH17	294	521	3	
090607	10:03	803	JAseeUR04	295	500	0	
090607	10:03	803	UR04 marsh	296	9332	home	
090607	10:03	803	JAUR04	297	1344	2	
090607	10:03	803	JAseeHL31	298	500	0	
090607	10:03	803	HL31 war	299	2595	boring	
090607	10:03	803	JAHL31	300	1792	3	
090607	10:03	803	JAseeLH07	301	500	0	
090607	10:03	803	LH07 rear	302	5302	culdesac	
090607	10:03	803	JALH07	303	1259	2	
090607	10:03	803	JAseeHL33	304	500	0	
090607	10:03	803	HL33 joke	305	2661	joke	
090607	10:03	803	JAHL33	306	399	2	
090607	10:03	803	JAseeHL01	307	500	0	
090607	10:03	803	HL01 elephant	308	4024	fairy	
090607	10:03	803	JAHL01	309	459	2	
090607	10:03	803	JAseeLH37	310	500	0	
090607	10:03	803	LH37 pad	311	7046	kindergarten	
090607	10:03	803	JALH37	312	86313	3	
090607	10:03	803	JAseeHL14	313	500	0	
090607	10:03	803	HL14 milk	314	2595	milk	
090607	10:03	803	JAHL14	315	1080	3	
090607	10:03	803	JAseeUR96	316	500	0	
090607	10:03	803	UR96 dessert	317	9036	kink	
090607	10:03	803	JAUR96	318	963	1	
090607	10:03	803	JAseeLH32	319	500	0	
090607	10:03	803	LH32 capacity	320	6628	exists	
090607	10:03	803	JALH32	321	1225	2	
090607	10:03	803	JAseeUR59	322	500	0	
090607	10:03	803	UR59 copper	323	3338	job	
090607	10:03	803	JAUR59	324	10532	3	
090607	10:03	803	JAseeUR21	325	500	0	
090607	10:03	803	UR21 ore	326	4548	tree	
090607	10:03	803	JAUR21	327	2508	2	
090607	10:03	803	JSseePR26	1	500	0	
090607	10:03	803	PR26 colonel	2	10774	time	
090607	10:03	803	JSPR26	3	10454	4	
090607	10:03	803	JSseePR24	4	500	0	
090607	10:03	803	PR24 pest	5	6168	preschool	
090607	10:03	803	JSPR24	6	6383	3	
090607	10:03	803	JSseePR08	7	500	0	
090607	10:03	803	PR08 beef	8	5615	beehive	
090607	10:03	803	JSPR08	9	1992	9	
090607	10:03	803	JSseePR05	10	500	0	
090607	10:03	803	PR05 calf	11	4093	year	
090607	10:03	803	JSPR05	12	497	6	
090607	10:03	803	JSseePR14	13	500	0	
090607	10:03	803	PR14 religion	14	4471	Blake	
090607	10:03	803	JSPR14	15	3879	9	
090607	10:03	803	JSseePR19	16	500	0	
090607	10:03	803	PR19 void	17	6566	lie	
090607	10:03	803	JSPR19	18	2741	7	
090607	10:03	803	JSseePR12	19	500	0	
090607	10:03	803	PR12 royalty	20	3765	royalty	
090607	10:03	803	JSPR12	21	2860	6	
090607	10:03	803	JSseePR02	22	500	0	
090607	10:03	803	PR02 wrinkle	23	8495	false	
090607	10:03	803	JSPR02	24	1842	5	
090607	10:03	803	JSseePR10	25	500	0	
090607	10:03	803	PR10 camel	26	5442	safe	
090607	10:03	803	JSPR10	27	3256	7	
090607	10:03	803	JSseePR15	28	500	0	
090607	10:03	803	PR15 depletion	29	11427	good	
090607	10:03	803	JSPR15	30	1359	4	
090607	10:03	803	JSseePR20	31	500	0	
090607	10:03	803	PR20 advertisement	32	3666	control	
090607	10:03	803	JSPR20	33	682	3	
090607	10:03	803	JSseePR29	34	500	0	
090607	10:03	803	PR29 mermaid	35	3400	space	
090607	10:03	803	JSPR29	36	491	8	
090607	10:03	803	JSseePR16	37	500	0	
090607	10:03	803	PR16 compulsion	38	5057	tungue	
090607	10:03	803	JSPR16	39	5356	7	
090607	10:03	803	JSseePR22	40	500	0	
090607	10:03	803	PR22 ass	41	4881	crunchy	
090607	10:03	803	JSPR22	42	22429	7	
090607	10:03	803	JSseePR18	43	500	0	
090607	10:03	803	PR18 clorox	44	5996	danger	
090607	10:03	803	JSPR18	45	5510	3	
090607	10:03	803	JSseeUR33	1	500	0	
090607	10:03	803	UR33 horror	2	5789	plane	
090607	10:03	803	JSUR33	3	3557	5	
090607	10:03	803	JSseeUR41	4	500	0	
090607	10:03	803	UR41 chime	5	3345	snow	
090607	10:03	803	JSUR41	6	2481	7	
090607	10:03	803	JSseeLH06	7	500	0	
090607	10:03	803	LH06 element	8	3757	material	
090607	10:03	803	JSLH06	9	9507	6	
090607	10:03	803	JSseeHL40	10	500	0	
090607	10:03	803	HL40 temperature	11	6560	treasure	
090607	10:03	803	JSHL40	12	3707	6	
090607	10:03	803	JSseeLH10	13	500	0	
090607	10:03	803	LH10 care	14	5442	sick	
090607	10:03	803	JSLH10	15	4403	7	
090607	10:03	803	JSseeHL16	16	500	0	
090607	10:03	803	HL16 broom	17	4538	broom	
090607	10:03	803	JSHL16	18	3151	9	
090607	10:03	803	JSseeLH42	19	500	0	
090607	10:03	803	LH42 thought	20	4703	tired	
090607	10:03	803	JSLH42	21	6759	4	
090607	10:03	803	JSseeLH44	22	500	0	
090607	10:03	803	LH44 vessel	23	3962	nothing	
090607	10:03	803	JSLH44	24	5555	6	
090607	10:03	803	JSseeLH41	25	500	0	
090607	10:03	803	LH41 girl	26	4531	mother	
090607	10:03	803	JSLH41	27	1121	5	
090607	10:03	803	JSseeHL08	28	500	0	
090607	10:03	803	HL08 math	29	3137	math	
090607	10:03	803	JSHL08	30	721	7	
090607	10:03	803	JSseeHL30	31	500	0	
090607	10:03	803	HL30 air	32	4500	pair	
090607	10:03	803	JSHL30	33	879	7	
090607	10:03	803	JSseeLH34	34	500	0	
090607	10:03	803	LH34 panel	35	3536	panel	
090607	10:03	803	JSLH34	36	2856	6	
090607	10:03	803	JSseeHL37	37	500	0	
090607	10:03	803	HL37 thread	38	4886	thread	
090607	10:03	803	JSHL37	39	3763	6	
090607	10:03	803	JSseeUR23	40	500	0	
090607	10:03	803	UR23 abundance	41	7641	abundance	
090607	10:03	803	JSUR23	42	11102	1	
090607	10:03	803	JSseeUR94	43	500	0	
090607	10:03	803	UR94 bristle	44	5753	carry	
090607	10:03	803	JSUR94	45	607	6	
090607	10:03	803	JSseeLH29	46	500	0	
090607	10:03	803	LH29 closet	47	2929	closet	
090607	10:03	803	JSLH29	48	4107	9	
090607	10:03	803	JSseeUR97	49	500	0	
090607	10:03	803	UR97 banner	50	12639	buzzard	
090607	10:03	803	JSUR97	51	3324	7	
090607	10:03	803	JSseeUR73	52	500	0	
090607	10:03	803	UR73 kite	53	5827	nose	
090607	10:03	803	JSUR73	54	3256	6	
090607	10:03	803	JSseeHL15	55	500	0	
090607	10:03	803	HL15 bomb	56	3287	bomb	
090607	10:03	803	JSHL15	57	18533	10	
090607	10:03	803	JSseeUR05	58	500	0	
090607	10:03	803	UR05 lease	59	3920	suicide	
090607	10:03	803	JSUR05	60	3762	6	
090607	10:03	803	JSseeLH40	61	500	0	
090607	10:03	803	LH40 field	62	7223	algebra	
090607	10:03	803	JSLH40	63	2576	5	
090607	10:03	803	JSseeUR09	64	500	0	
090607	10:03	803	UR09 education	65	4991	magazine	
090607	10:03	803	JSUR09	66	2858	5	
090607	10:03	803	JSseeHL18	67	500	0	
090607	10:03	803	HL18 paper	68	7091	paper	
090607	10:03	803	JSHL18	69	51028	3	
090607	10:03	803	JSseeUR61	70	500	0	
090607	10:03	803	UR61 suicide	71	8792	sudden	
090607	10:03	803	JSUR61	72	1212	3	
090607	10:03	803	JSseeLH18	73	500	0	
090607	10:03	803	LH18 edge	74	2663	edge	
090607	10:03	803	JSLH18	75	814	6	
090607	10:03	803	JSseeHL04	76	500	0	
090607	10:03	803	HL04 beer	77	3761	control	
090607	10:03	803	JSHL04	78	1022	4	
090607	10:03	803	JSseeUR19	79	500	0	
090607	10:03	803	UR19 bison	80	7428	Blake	
090607	10:03	803	JSUR19	81	12194	8	
090607	10:03	803	JSseeLH12	82	500	0	
090607	10:03	803	LH12 addition	83	6294	electricity	
090607	10:03	803	JSLH12	84	2453	5	
090607	10:03	803	JSseeHL02	85	500	0	
090607	10:03	803	HL02 flower	86	4119	flower	
090607	10:03	803	JSHL02	87	2135	5	
090607	10:03	803	JSseeLH36	88	500	0	
090607	10:03	803	LH36 gang	89	6468	captain	
090607	10:03	803	JSLH36	90	1996	9	
090607	10:03	803	JSseeLH48	91	500	0	
090607	10:03	803	LH48 outcome	92	3761	outcome	
090607	10:03	803	JSLH48	93	1497	4	
090607	10:03	803	JSseeLH15	94	500	0	
090607	10:03	803	LH15 blessing	95	3686	blessing	
090607	10:03	803	JSLH15	96	1166	4	
090607	10:03	803	JSseeHL35	97	500	0	
090607	10:03	803	HL35 cake	98	6230	cake	
090607	10:03	803	JSHL35	99	1711	8	
090607	10:03	803	JSseeUR40	100	500	0	
090607	10:03	803	UR40 dancer	101	6860	teenage	
090607	10:03	803	JSUR40	102	4572	5	
090607	10:03	803	JSseeUR88	103	500	0	
090607	10:03	803	UR88 circus	104	6156	detroit	
090607	10:03	803	JSUR88	105	5549	9	
090607	10:03	803	JSseeUR81	106	500	0	
090607	10:03	803	UR81 acid	107	5532	space	
090607	10:03	803	JSUR81	108	3099	8	
090607	10:03	803	JSseeUR92	109	500	0	
090607	10:03	803	UR92 dart	110	9568	descreet	
090607	10:03	803	JSUR92	111	2360	5	
090607	10:03	803	JSseeHL44	112	500	0	
090607	10:03	803	HL44 baseball	113	3823	baseball	
090607	10:03	803	JSHL44	114	2031	8	
090607	10:03	803	JSseeHL46	115	500	0	
090607	10:03	803	HL46 butter	116	3191	tender	
090607	10:03	803	JSHL46	117	414	2	
090607	10:03	803	JSseeUR15	118	500	0	
090607	10:03	803	UR15 compass	119	5791	christian	
090607	10:03	803	JSUR15	120	562	3	
090607	10:03	803	JSseeLH35	121	500	0	
090607	10:03	803	LH35 shelter	122	4057	SHELTER	
090607	10:03	803	JSLH35	123	4488	5	
090607	10:03	803	JSseeUR91	124	500	0	
090607	10:03	803	UR91 anteater	125	5527	mound	
090607	10:03	803	JSUR91	126	8344	8	
090607	10:03	803	JSseeLH08	127	500	0	
090607	10:03	803	LH08 house	128	3071	house	
090607	10:03	803	JSLH08	129	2965	5	
090607	10:03	803	JSseeLH21	130	500	0	
090607	10:03	803	LH21 monument	131	7012	remorse	
090607	10:03	803	JSLH21	132	4765	10	
090607	10:03	803	JSseeUR83	133	500	0	
090607	10:03	803	UR83 lesson	134	8594	competition	
090607	10:03	803	JSUR83	135	1614	3	
090607	10:03	803	JSseeHL22	136	500	0	
090607	10:03	803	HL22 problem	137	4018	problem	
090607	10:03	803	JSHL22	138	4558	9	
090607	10:03	803	JSseeLH47	139	500	0	
090607	10:03	803	LH47 detergent	140	5855	detergent	
090607	10:03	803	JSLH47	141	1596	8	
090607	10:03	803	JSseeUR56	142	500	0	
090607	10:03	803	UR56 antler	143	5678	call	
090607	10:03	803	JSUR56	144	3336	8	
090607	10:03	803	JSseeUR80	145	500	0	
090607	10:03	803	UR80 antique	146	6272	impossible	
090607	10:03	803	JSUR80	147	3275	4	
090607	10:03	803	JSseeUR11	148	500	0	
090607	10:03	803	UR11 foundation	149	8806	twelve	
090607	10:03	803	JSUR11	150	1590	3	
090607	10:03	803	JSseeHL11	151	500	0	
090607	10:03	803	HL11 rock	152	5879	grave	
090607	10:03	803	JSHL11	153	2217	4	
090607	10:03	803	JSseeLH16	154	500	0	
090607	10:03	803	LH16 power	155	2720	power	
090607	10:03	803	JSLH16	156	1871	3	
090607	10:03	803	JSseeUR18	157	500	0	
090607	10:03	803	UR18 relief	158	3210	sad	
090607	10:03	803	JSUR18	159	1246	4	
090607	10:03	803	JSseeLH39	160	500	0	
090607	10:03	803	LH39 reward	161	5851	cheap	
090607	10:03	803	JSLH39	162	1391	2	
090607	10:03	803	JSseeUR79	163	500	0	
090607	10:03	803	UR79 beetle	164	4861	vegitable	
090607	10:03	803	JSUR79	165	3344	7	
090607	10:03	803	JSseeUR102	166	500	0	
090607	10:03	803	UR102 velocity	167	4339	velocity	
090607	10:03	803	JSUR102	168	18648	5	
090607	10:03	803	JSseeUR101	169	500	0	
090607	10:03	803	UR101 beard	170	5382	beer	
090607	10:03	803	JSUR101	171	9184	4	
090607	10:03	803	JSseeUR72	172	500	0	
090607	10:03	803	UR72 band	173	4685	yum	
090607	10:03	803	JSUR72	174	1386	3	
090607	10:03	803	JSseeUR51	175	500	0	
090607	10:03	803	UR51 cabbage	176	8231	transportation	
090607	10:03	803	JSUR51	177	2255	9	
090607	10:03	803	JSseeHL54	178	500	0	
090607	10:03	803	HL54 indian	179	6281	house	
090607	10:03	803	JSHL54	180	1849	8	
090607	10:03	803	JSseeUR39	181	500	0	
090607	10:03	803	UR39 faith	182	5688	level	
090607	10:03	803	JSUR39	183	2751	6	
090607	10:03	803	JSseeUR49	184	500	0	
090607	10:03	803	UR49 casket	185	10292	cash	
090607	10:03	803	JSUR49	186	2228	5	
090607	10:03	803	JSseeLH49	187	500	0	
090607	10:03	803	LH49 kindness	188	8649	driver	
090607	10:03	803	JSLH49	189	2492	5	
090607	10:03	803	JSseeUR10	190	500	0	
090607	10:03	803	UR10 tribe	191	4090	horse	
090607	10:03	803	JSUR10	192	1435	5	
090607	10:03	803	JSseeHL06	193	500	0	
090607	10:03	803	HL06 egg	194	3253	egg	
090607	10:03	803	JSHL06	195	3634	2	
090607	10:03	803	JSseeUR71	196	500	0	
090607	10:03	803	UR71 padding	197	4676	pudding	
090607	10:03	803	JSUR71	198	1341	8	
090607	10:03	803	JSseeUR25	199	500	0	
090607	10:03	803	UR25 partner	200	6450	italian	
090607	10:03	803	JSUR25	201	4797	2	
090607	10:03	803	JSseeUR03	202	500	0	
090607	10:03	803	UR03 vehicle	203	5079	kitty	
090607	10:03	803	JSUR03	204	42996	5	
090607	10:03	803	JSseeHL28	205	500	0	
090607	10:03	803	HL28 bird	206	2134	poop	
090607	10:03	803	JSHL28	207	700	4	
090607	10:03	803	JSseeUR100	208	500	0	
090607	10:03	803	UR100 comb	209	3287	lock	
090607	10:03	803	JSUR100	210	1729	2	
090607	10:03	803	JSseeUR89	211	500	0	
090607	10:03	803	UR89 crow	212	3363	danger	
090607	10:03	803	JSUR89	213	1783	3	
090607	10:03	803	JSseeUR29	214	500	0	
090607	10:03	803	UR29 patrol	215	3113	walk	
090607	10:03	803	JSUR29	216	2271	2	
090607	10:03	803	JSseeHL38	217	500	0	
090607	10:03	803	HL38 boat	218	4986	travel	
090607	10:03	803	JSHL38	219	22736	4	
090607	10:03	803	JSseeLH33	220	500	0	
090607	10:03	803	LH33 fable	221	3593	fable	
090607	10:03	803	JSLH33	222	1468	4	
090607	10:03	803	JSseeUR31	223	500	0	
090607	10:03	803	UR31 diameter	224	3981	little	
090607	10:03	803	JSUR31	225	2111	4	
090607	10:03	803	JSseeHL19	226	500	0	
090607	10:03	803	HL19 car	227	5255	deer	
090607	10:03	803	JSHL19	228	4138	2	
090607	10:03	803	JSseeLH31	229	500	0	
090607	10:03	803	LH31 self	230	4641	camp	
090607	10:03	803	JSLH31	231	1566	2	
090607	10:03	803	JSseeLH13	232	500	0	
090607	10:03	803	LH13 crease	233	5079	croche	
090607	10:03	803	JSLH13	234	1460	8	
090607	10:03	803	JSseeUR37	235	500	0	
090607	10:03	803	UR37 cloth	236	3583	feild	
090607	10:03	803	JSUR37	237	1745	1	
090607	10:03	803	JSseeHL27	238	500	0	
090607	10:03	803	HL27 rain	239	2605	rain	
090607	10:03	803	JSHL27	240	1537	3	
090607	10:03	803	JSseeUR104	241	500	0	
090607	10:03	803	UR104 aardvark	242	7363	alphabet	
090607	10:03	803	JSUR104	243	2016	2	
090607	10:03	803	JSseeUR38	244	500	0	
090607	10:03	803	UR38 energy	245	3738	control	
090607	10:03	803	JSUR38	246	6549	2	
090607	10:03	803	JSseeUR90	247	500	0	
090607	10:03	803	UR90 sailing	248	8302	pricing	
090607	10:03	803	JSUR90	249	3961	2	
090607	10:03	803	JSseeUR57	250	500	0	
090607	10:03	803	UR57 benefit	251	11084	cotton	
090607	10:03	803	JSUR57	252	2134	2	
090607	10:03	803	JSseeUR86	253	500	0	
090607	10:03	803	UR86 boulevard	254	6921	marley	
090607	10:03	803	JSUR86	255	2974	8	
090607	10:03	803	JSseeLH45	256	500	0	
090607	10:03	803	LH45 intellect	257	4550	intellect	
090607	10:03	803	JSLH45	258	14200	4	
090607	10:03	803	JSseeLH26	259	500	0	
090607	10:03	803	LH26 center	260	11960	parking lot	
090607	10:03	803	JSLH26	261	2053	4	
090607	10:03	803	JSseeUR12	262	500	0	
090607	10:03	803	UR12 unicorn	263	3716	spoon	
090607	10:03	803	JSUR12	264	413	5	
090607	10:03	803	JSseeUR108	265	500	0	
090607	10:03	803	UR108 shield	266	3559	shield	
090607	10:03	803	JSUR108	267	1936	6	
090607	10:03	803	JSseeUR99	268	500	0	
090607	10:03	803	UR99 branch	269	4275	bowl	
090607	10:03	803	JSUR99	270	2581	3	
090607	10:03	803	JSseeHL29	271	500	0	
090607	10:03	803	HL29 ring	272	5898	porch	
090607	10:03	803	JSHL29	273	1609	2	
090607	10:03	803	JSseeHL26	274	500	0	
090607	10:03	803	HL26 light	275	3852	prison	
090607	10:03	803	JSHL26	276	2452	6	
090607	10:03	803	JSseeLH28	277	500	0	
090607	10:03	803	LH28 vagrant	278	4792	vaccant	
090607	10:03	803	JSLH28	279	3142	6	
090607	10:03	803	JSseeHL52	280	500	0	
090607	10:03	803	HL52 sand	281	3957	hard	
090607	10:03	803	JSHL52	282	2181	4	
090607	10:03	803	JSseeHL48	283	500	0	
090607	10:03	803	HL48 airplane	284	4728	airplane	
090607	10:03	803	JSHL48	285	1999	5	
090607	10:03	803	JSseeUR43	286	500	0	
090607	10:03	803	UR43 balloon	287	3868	rick	
090607	10:03	803	JSUR43	288	3689	4	
090607	10:03	803	JSseeUR93	289	500	0	
090607	10:03	803	UR93 catcher	290	3639	knight	
090607	10:03	803	JSUR93	291	2651	3	
090607	10:03	803	JSseeHL20	292	500	0	
090607	10:03	803	HL20 wine	293	2669	wine	
090607	10:03	803	JSHL20	294	2495	7	
090607	10:03	803	JSseeHL13	295	500	0	
090607	10:03	803	HL13 map	296	3250	map	
090607	10:03	803	JSHL13	297	891	6	
090607	10:03	803	JSseeHL12	298	500	0	
090607	10:03	803	HL12 space	299	2773	space	
090607	10:03	803	JSHL12	300	340	7	
090607	10:03	803	JSseeUR02	301	500	0	
090607	10:03	803	UR02 comma	302	4833	space	
090607	10:03	803	JSUR02	303	554	7	
090607	10:03	803	JSseeUR48	304	500	0	
090607	10:03	803	UR48 democracy	305	9415	democracy	
090607	10:03	803	JSUR48	306	1911	3	
090607	10:03	803	JSseeUR08	307	500	0	
090607	10:03	803	UR08 assistant	308	7277	helpful	
090607	10:03	803	JSUR08	309	2729	4	
090607	10:03	803	JSseeUR84	310	500	0	
090607	10:03	803	UR84 flag	311	9656	nothing	
090607	10:03	803	JSUR84	312	2462	6	
090607	10:03	803	JSseeUR26	313	500	0	
090607	10:03	803	UR26 eternity	314	4957	eternity	
090607	10:03	803	JSUR26	315	2189	5	
090607	10:03	803	JSseeLH52	316	500	0	
090607	10:03	803	LH52 bureau	317	15809	sect	
090607	10:03	803	JSLH52	318	2037	6	
090607	10:03	803	JSseeUR44	319	500	0	
090607	10:03	803	UR44 rot	320	3665	not	
090607	10:03	803	JSUR44	321	551	7	
090607	10:03	803	JSseeUR16	322	500	0	
090607	10:03	803	UR16 century	323	4267	penny	
090607	10:03	803	JSUR16	324	703	6	
