date	time	subject	trialcode	trialnum	latency	response	
090607	13:21	815	JSseePR17	1	500	0	
090607	13:21	815	PR17 emerald	2	3703	elm	
090607	13:21	815	JSPR17	3	28881	5	
090607	13:21	815	JSseePR27	4	500	0	
090607	13:21	815	PR27 wheat	5	5846	wife	
090607	13:21	815	JSPR27	6	7249	10	
090607	13:21	815	JSseePR07	7	500	0	
090607	13:21	815	PR07 bog	8	2672	blog	
090607	13:21	815	JSPR07	9	6831	6	
090607	13:21	815	JSseePR23	10	500	0	
090607	13:21	815	PR23 companion	11	2799	explain	
090607	13:21	815	JSPR23	12	7973	10	
090607	13:21	815	JSseePR06	13	500	0	
090607	13:21	815	PR06 beast	14	2181	beat	
090607	13:21	815	JSPR06	15	5906	4	
090607	13:21	815	JSseePR09	16	500	0	
090607	13:21	815	PR09 album	17	4486	album	
090607	13:21	815	JSPR09	18	3776	5	
090607	13:21	815	JSseePR21	19	500	0	
090607	13:21	815	PR21 innocence	20	4700	innocence	
090607	13:21	815	JSPR21	21	6679	6	
090607	13:21	815	JSseePR01	22	500	0	
090607	13:21	815	PR01 cash	23	2512	cash	
090607	13:21	815	JSPR01	24	4490	8	
090607	13:21	815	JSseePR11	25	500	0	
090607	13:21	815	PR11 ounce	26	3066	once	
090607	13:21	815	JSPR11	27	6129	5	
090607	13:21	815	JSseePR25	28	500	0	
090607	13:21	815	PR25 saliva	29	2471	saliva	
090607	13:21	815	JSPR25	30	3095	6	
090607	13:21	815	JSseePR30	31	500	0	
090607	13:21	815	PR30 maiden	32	2549	made	
090607	13:21	815	JSPR30	33	4619	4	
090607	13:21	815	JSseePR03	34	500	0	
090607	13:21	815	PR03 acre	35	2190	acre	
090607	13:21	815	JSPR03	36	6100	6	
090607	13:21	815	JSseePR13	37	500	0	
090607	13:21	815	PR13 ambition	38	2824	ambition	
090607	13:21	815	JSPR13	39	4471	2	
090607	13:21	815	JSseePR04	40	500	0	
090607	13:21	815	PR04 diaper	41	2371	diaper	
090607	13:21	815	JSPR04	42	4238	5	
090607	13:21	815	JSseePR28	43	500	0	
090607	13:21	815	PR28 challenge	44	2540	control	
090607	13:21	815	JSPR28	45	2942	6	
090607	13:21	815	JSseeUR42	1	500	0	
090607	13:21	815	UR42 sergeant	2	2462	sergeant	
090607	13:21	815	JSUR42	3	3626	7	
090607	13:21	815	JSseeUR52	4	500	0	
090607	13:21	815	UR52 knight	5	4588	not	
090607	13:21	815	JSUR52	6	2287	8	
090607	13:21	815	JSseeLH01	7	500	0	
090607	13:21	815	LH01 brain	8	1918	brain	
090607	13:21	815	JSLH01	9	4232	6	
090607	13:21	815	JSseeHL45	10	500	0	
090607	13:21	815	HL45 words	11	2271	words	
090607	13:21	815	JSHL45	12	3182	5	
090607	13:21	815	JSseeLH03	13	500	0	
090607	13:21	815	LH03 yard	14	1921	yard	
090607	13:21	815	JSLH03	15	8957	4	
090607	13:21	815	JSseeHL21	16	500	0	
090607	13:21	815	HL21 empire	17	1902	empire	
090607	13:21	815	JSHL21	18	2322	7	
090607	13:21	815	JSseeLH38	19	500	0	
090607	13:21	815	LH38 paint	20	2174	rain	
090607	13:21	815	JSLH38	21	2419	5	
090607	13:21	815	JSseeLH43	22	500	0	
090607	13:21	815	LH43 noise	23	3505	noise	
090607	13:21	815	JSLH43	24	6056	4	
090607	13:21	815	JSseeLH37	25	500	0	
090607	13:21	815	LH37 pad	26	4191	bed	
090607	13:21	815	JSLH37	27	4550	3	
090607	13:21	815	JSseeHL07	28	500	0	
090607	13:21	815	HL07 king	29	1688	king	
090607	13:21	815	JSHL07	30	5202	4	
090607	13:21	815	JSseeHL39	31	500	0	
090607	13:21	815	HL39 book	32	1341	book	
090607	13:21	815	JSHL39	33	3950	5	
090607	13:21	815	JSseeLH24	34	500	0	
090607	13:21	815	LH24 feeling	35	2511	feeling	
090607	13:21	815	JSLH24	36	3588	6	
090607	13:21	815	JSseeHL42	37	500	0	
090607	13:21	815	HL42 pie	38	1324	pie	
090607	13:21	815	JSHL42	39	8401	5	
090607	13:21	815	JSseeUR30	40	500	0	
090607	13:21	815	UR30 lover	41	2444	love	
090607	13:21	815	JSUR30	42	4570	4	
090607	13:21	815	JSseeUR95	43	500	0	
090607	13:21	815	UR95 fool	44	3277	fool	
090607	13:21	815	JSUR95	45	5377	8	
090607	13:21	815	JSseeLH20	46	500	0	
090607	13:21	815	LH20 violation	47	4713	violation	
090607	13:21	815	JSLH20	48	3861	7	
090607	13:21	815	JSseeUR96	49	500	0	
090607	13:21	815	UR96 dessert	50	2247	desire	
090607	13:21	815	JSUR96	51	4949	7	
090607	13:21	815	JSseeUR66	52	500	0	
090607	13:21	815	UR66 chief	53	5756	chief	
090607	13:21	815	JSUR66	54	13865	3	
090607	13:21	815	JSseeHL17	55	500	0	
090607	13:21	815	HL17 soap	56	1515	soap	
090607	13:21	815	JSHL17	57	6412	7	
090607	13:21	815	JSseeUR06	58	500	0	
090607	13:21	815	UR06 cello	59	4286	degree	
090607	13:21	815	JSUR06	60	14712	6	
090607	13:21	815	JSseeLH32	61	500	0	
090607	13:21	815	LH32 capacity	62	2336	sport	
090607	13:21	815	JSLH32	63	5726	8	
090607	13:21	815	JSseeUR103	64	500	0	
090607	13:21	815	UR103 hula	65	2384	laugh	
090607	13:21	815	JSUR103	66	3863	10	
090607	13:21	815	JSseeHL23	67	500	0	
090607	13:21	815	HL23 baby	68	1512	baby	
090607	13:21	815	JSHL23	69	2920	8	
090607	13:21	815	JSseeUR63	70	500	0	
090607	13:21	815	UR63 alley	71	3796	allergen	
090607	13:21	815	JSUR63	72	2633	7	
090607	13:21	815	JSseeLH11	73	500	0	
090607	13:21	815	LH11 cancer	74	2251	cancer	
090607	13:21	815	JSLH11	75	5617	7	
090607	13:21	815	JSseeHL03	76	500	0	
090607	13:21	815	HL03 cigarette	77	3721	cigarette	
090607	13:21	815	JSHL03	78	3559	5	
090607	13:21	815	JSseeUR28	79	500	0	
090607	13:21	815	UR28 bang	80	1296	ang	
090607	13:21	815	JSUR28	81	6148	7	
090607	13:21	815	JSseeLH04	82	500	0	
090607	13:21	815	LH04 grade	83	2011	grade	
090607	13:21	815	JSLH04	84	6396	10	
090607	13:21	815	JSseeHL01	85	500	0	
090607	13:21	815	HL01 elephant	86	2366	elephant	
090607	13:21	815	JSHL01	87	4654	6	
090607	13:21	815	JSseeLH27	88	500	0	
090607	13:21	815	LH27 condition	89	2118	condition	
090607	13:21	815	JSLH27	90	6546	2	
090607	13:21	815	JSseeLH51	91	500	0	
090607	13:21	815	LH51 exit	92	2887	power	
090607	13:21	815	JSLH51	93	20358	6	
090607	13:21	815	JSseeLH07	94	500	0	
090607	13:21	815	LH07 rear	95	1647	read	
090607	13:21	815	JSLH07	96	2033	8	
090607	13:21	815	JSseeHL41	97	500	0	
090607	13:21	815	HL41 hand	98	1296	hand	
090607	13:21	815	JSHL41	99	3589	3	
090607	13:21	815	JSseeUR50	100	500	0	
090607	13:21	815	UR50 crane	101	2311	crane	
090607	13:21	815	JSUR50	102	3449	2	
090607	13:21	815	JSseeUR76	103	500	0	
090607	13:21	815	UR76 dignity	104	5084	digit	
090607	13:21	815	JSUR76	105	3807	6	
090607	13:21	815	JSseeUR69	106	500	0	
090607	13:21	815	UR69 flashlight	107	2501	flashlight	
090607	13:21	815	JSUR69	108	8412	4	
090607	13:21	815	JSseeUR85	109	500	0	
090607	13:21	815	UR85 stroke	110	3505	stoke	
090607	13:21	815	JSUR85	111	4352	2	
090607	13:21	815	JSseeHL47	112	500	0	
090607	13:21	815	HL47 horse	113	1735	horse	
090607	13:21	815	JSHL47	114	2921	8	
090607	13:21	815	JSseeHL49	115	500	0	
090607	13:21	815	HL49 spice	116	2556	spice	
090607	13:21	815	JSHL49	117	3236	6	
090607	13:21	815	JSseeUR22	118	500	0	
090607	13:21	815	UR22 thesaurus	119	2408	ball	
090607	13:21	815	JSUR22	120	6345	3	
090607	13:21	815	JSseeLH25	121	500	0	
090607	13:21	815	LH25 track	122	1628	track	
090607	13:21	815	JSLH25	123	9275	9	
090607	13:21	815	JSseeUR82	124	500	0	
090607	13:21	815	UR82 campus	125	2563	campus	
090607	13:21	815	JSUR82	126	2873	8	
090607	13:21	815	JSseeLH02	127	500	0	
090607	13:21	815	LH02 harm	128	1416	harm	
090607	13:21	815	JSLH02	129	5790	7	
090607	13:21	815	JSseeLH14	130	500	0	
090607	13:21	815	LH14 note	131	4044	note	
090607	13:21	815	JSLH14	132	5556	5	
090607	13:21	815	JSseeUR70	133	500	0	
090607	13:21	815	UR70 pajamas	134	7289	plate	
090607	13:21	815	JSUR70	135	3549	6	
090607	13:21	815	JSseeHL31	136	500	0	
090607	13:21	815	HL31 war	137	2282	war	
090607	13:21	815	JSHL31	138	9379	6	
090607	13:21	815	JSseeLH50	139	500	0	
090607	13:21	815	LH50 measure	140	3552	measure	
090607	13:21	815	JSLH50	141	3986	5	
090607	13:21	815	JSseeUR60	142	500	0	
090607	13:21	815	UR60 plaque	143	3413	plack	
090607	13:21	815	JSUR60	144	4486	8	
090607	13:21	815	JSseeUR68	145	500	0	
090607	13:21	815	UR68 fatigue	146	3011	drip	
090607	13:21	815	JSUR68	147	4067	4	
090607	13:21	815	JSseeUR20	148	500	0	
090607	13:21	815	UR20 climax	149	7183	climax	
090607	13:21	815	JSUR20	150	2601	6	
090607	13:21	815	JSseeHL09	151	500	0	
090607	13:21	815	HL09 chalk	152	1934	chalk	
090607	13:21	815	JSHL09	153	2140	7	
090607	13:21	815	JSseeLH09	154	500	0	
090607	13:21	815	LH09 piece	155	1767	piece	
090607	13:21	815	JSLH09	156	6071	2	
090607	13:21	815	JSseeUR27	157	500	0	
090607	13:21	815	UR27 consequence	158	2165		
090607	13:21	815	JSUR27	159	4808	3	
090607	13:21	815	JSseeLH30	160	500	0	
090607	13:21	815	LH30 assignment	161	5647	assignment	
090607	13:21	815	JSLH30	162	3487	10	
090607	13:21	815	JSseeUR67	163	500	0	
090607	13:21	815	UR67 producer	164	3411	producer	
090607	13:21	815	JSUR67	165	4571	2	
090607	13:21	815	JSseeUR13	166	500	0	
090607	13:21	815	UR13 almanac	167	3188	water	
090607	13:21	815	JSUR13	168	3826	10	
090607	13:21	815	JSseeUR107	169	500	0	
090607	13:21	815	UR107 cocaine	170	5908	cobweb	
090607	13:21	815	JSUR107	171	3008	8	
090607	13:21	815	JSseeUR65	172	500	0	
090607	13:21	815	UR65 checkers	173	3492	crackers	
090607	13:21	815	JSUR65	174	6930	9	
090607	13:21	815	JSseeUR59	175	500	0	
090607	13:21	815	UR59 copper	176	2347	paper	
090607	13:21	815	JSUR59	177	2549	8	
090607	13:21	815	JSseeHL53	178	500	0	
090607	13:21	815	HL53 fish	179	1351	fish	
090607	13:21	815	JSHL53	180	5703	8	
090607	13:21	815	JSseeUR47	181	500	0	
090607	13:21	815	UR47 chimpanzee	182	4549	chimpanzee	
090607	13:21	815	JSUR47	183	4731	5	
090607	13:21	815	JSseeUR58	184	500	0	
090607	13:21	815	UR58 answer	185	2992	answer	
090607	13:21	815	JSUR58	186	8545	5	
090607	13:21	815	JSseeLH53	187	500	0	
090607	13:21	815	LH53 core	188	2615	core	
090607	13:21	815	JSLH53	189	9403	5	
090607	13:21	815	JSseeUR105	190	500	0	
090607	13:21	815	UR105 curtain	191	3618	curtain	
090607	13:21	815	JSUR105	192	3112	1	
090607	13:21	815	JSseeHL05	193	500	0	
090607	13:21	815	HL05 mountain	194	2331	mountain	
090607	13:21	815	JSHL05	195	2769	3	
090607	13:21	815	JSseeUR64	196	500	0	
090607	13:21	815	UR64 fist	197	2116	first	
090607	13:21	815	JSUR64	198	4896	7	
090607	13:21	815	JSseeUR32	199	500	0	
090607	13:21	815	UR32 navigator	200	3349	navigator	
090607	13:21	815	JSUR32	201	4164	2	
090607	13:21	815	JSseeUR04	202	500	0	
090607	13:21	815	UR04 marsh	203	3474	marsh	
090607	13:21	815	JSUR04	204	4631	7	
090607	13:21	815	JSseeHL34	205	500	0	
090607	13:21	815	HL34 hunger	206	2499	hunger	
090607	13:21	815	JSHL34	207	3031	7	
090607	13:21	815	JSseeUR106	208	500	0	
090607	13:21	815	UR106 eagle	209	2255	hear	
090607	13:21	815	JSUR106	210	3680	5	
090607	13:21	815	JSseeUR77	211	500	0	
090607	13:21	815	UR77 uncle	212	2706	page	
090607	13:21	815	JSUR77	213	4388	6	
090607	13:21	815	JSseeUR35	214	500	0	
090607	13:21	815	UR35 cause	215	1848	cause	
090607	13:21	815	JSUR35	216	2631	8	
090607	13:21	815	JSseeHL43	217	500	0	
090607	13:21	815	HL43 money	218	2780	money	
090607	13:21	815	JSHL43	219	5430	5	
090607	13:21	815	JSseeLH23	220	500	0	
090607	13:21	815	LH23 possibility	221	3458	pay	
090607	13:21	815	JSLH23	222	4692	6	
090607	13:21	815	JSseeUR36	223	500	0	
090607	13:21	815	UR36 denim	224	2864	denim	
090607	13:21	815	JSUR36	225	4206	4	
090607	13:21	815	JSseeHL24	226	500	0	
090607	13:21	815	HL24 eye	227	1699	eye	
090607	13:21	815	JSHL24	228	6626	5	
090607	13:21	815	JSseeLH22	229	500	0	
090607	13:21	815	LH22 crowd	230	1809	crowd	
090607	13:21	815	JSLH22	231	4081	8	
090607	13:21	815	JSseeLH05	232	500	0	
090607	13:21	815	LH05 chain	233	1623	chain	
090607	13:21	815	JSLH05	234	2423	7	
090607	13:21	815	JSseeUR45	235	500	0	
090607	13:21	815	UR45 bridge	236	2981	marry	
090607	13:21	815	JSUR45	237	2234	8	
090607	13:21	815	JSseeHL33	238	500	0	
090607	13:21	815	HL33 joke	239	1407	joke	
090607	13:21	815	JSHL33	240	2601	5	
090607	13:21	815	JSseeUR14	241	500	0	
090607	13:21	815	UR14 fudge	242	5684	fudge	
090607	13:21	815	JSUR14	243	4415	6	
090607	13:21	815	JSseeUR46	244	500	0	
090607	13:21	815	UR46 content	245	2096	content	
090607	13:21	815	JSUR46	246	9866	9	
090607	13:21	815	JSseeUR78	247	500	0	
090607	13:21	815	UR78 blender	248	3395	bland	
090607	13:21	815	JSUR78	249	1789	8	
090607	13:21	815	JSseeUR62	250	500	0	
090607	13:21	815	UR62 chemistry	251	2274	chemistry	
090607	13:21	815	JSUR62	252	2492	7	
090607	13:21	815	JSseeUR75	253	500	0	
090607	13:21	815	UR75 awe	254	2319	awe	
090607	13:21	815	JSUR75	255	5111	3	
090607	13:21	815	JSseeLH46	256	500	0	
090607	13:21	815	LH46 submarine	257	2526	submarine	
090607	13:21	815	JSLH46	258	4013	1	
090607	13:21	815	JSseeLH17	259	500	0	
090607	13:21	815	LH17 life	260	2030	lie	
090607	13:21	815	JSLH17	261	5130	7	
090607	13:21	815	JSseeUR21	262	500	0	
090607	13:21	815	UR21 ore	263	2110	ore	
090607	13:21	815	JSUR21	264	1850	7	
090607	13:21	815	JSseeUR17	265	500	0	
090607	13:21	815	UR17 trance	266	4099	chest	
090607	13:21	815	JSUR17	267	4916	5	
090607	13:21	815	JSseeUR98	268	500	0	
090607	13:21	815	UR98 latch	269	3298	latch	
090607	13:21	815	JSUR98	270	3065	2	
090607	13:21	815	JSseeHL36	271	500	0	
090607	13:21	815	HL36 football	272	2403	football	
090607	13:21	815	JSHL36	273	4389	2	
090607	13:21	815	JSseeHL32	274	500	0	
090607	13:21	815	HL32 television	275	2595	television	
090607	13:21	815	JSHL32	276	8250	2	
090607	13:21	815	JSseeLH19	277	500	0	
090607	13:21	815	LH19 snob	278	1654	snob	
090607	13:21	815	JSLH19	279	3883	4	
090607	13:21	815	JSseeHL51	280	500	0	
090607	13:21	815	HL51 color	281	3051	color	
090607	13:21	815	JSHL51	282	9137	4	
090607	13:21	815	JSseeHL50	283	500	0	
090607	13:21	815	HL50 doctor	284	2121	doctor	
090607	13:21	815	JSHL50	285	3507	6	
090607	13:21	815	JSseeUR53	286	500	0	
090607	13:21	815	UR53 hell	287	3472	hello	
090607	13:21	815	JSUR53	288	2440	4	
090607	13:21	815	JSseeUR87	289	500	0	
090607	13:21	815	UR87 duty	290	7538		
090607	13:21	815	JSUR87	291	8419	6	
090607	13:21	815	JSseeHL25	292	500	0	
090607	13:21	815	HL25 cut	293	1784	cut	
090607	13:21	815	JSHL25	294	2142	8	
090607	13:21	815	JSseeHL14	295	500	0	
090607	13:21	815	HL14 milk	296	2864	milk	
090607	13:21	815	JSHL14	297	5591	6	
090607	13:21	815	JSseeHL10	298	500	0	
090607	13:21	815	HL10 cow	299	2352	cow	
090607	13:21	815	JSHL10	300	2808	7	
090607	13:21	815	JSseeUR01	301	500	0	
090607	13:21	815	UR01 file	302	1694	file	
090607	13:21	815	JSUR01	303	8398	7	
090607	13:21	815	JSseeUR55	304	500	0	
090607	13:21	815	UR55 bargain	305	8155	bargain	
090607	13:21	815	JSUR55	306	6372	9	
090607	13:21	815	JSseeUR07	307	500	0	
090607	13:21	815	UR07 gathering	308	2365	gather	
090607	13:21	815	JSUR07	309	2547	7	
090607	13:21	815	JSseeUR74	310	500	0	
090607	13:21	815	UR74 suitcase	311	4527	sunset	
090607	13:21	815	JSUR74	312	6324	10	
090607	13:21	815	JSseeUR34	313	500	0	
090607	13:21	815	UR34 charity	314	4613	charity	
090607	13:21	815	JSUR34	315	7971	8	
090607	13:21	815	JSseeLH54	316	500	0	
090607	13:21	815	LH54 limit	317	1966	limit	
090607	13:21	815	JSLH54	318	16920	6	
090607	13:21	815	JSseeUR54	319	500	0	
090607	13:21	815	UR54 steam	320	4251	steam	
090607	13:21	815	JSUR54	321	3284	4	
090607	13:21	815	JSseeUR24	322	500	0	
090607	13:21	815	UR24 kid	323	1904	kid	
090607	13:21	815	JSUR24	324	2979	8	
090607	13:21	815	JAseePR26	1	500	0	
090607	13:21	815	PR26 colonel	2	5392	smell	
090607	13:21	815	JAPR26	3	10921	3	
090607	13:21	815	JAseePR24	4	500	0	
090607	13:21	815	PR24 pest	5	2041	pest	
090607	13:21	815	JAPR24	6	6126	2	
090607	13:21	815	JAseePR08	7	500	0	
090607	13:21	815	PR08 beef	8	1941	beef	
090607	13:21	815	JAPR08	9	9761	7	
090607	13:21	815	JAseePR05	10	500	0	
090607	13:21	815	PR05 calf	11	1953	calf	
090607	13:21	815	JAPR05	12	5453	5	
090607	13:21	815	JAseePR14	13	500	0	
090607	13:21	815	PR14 religion	14	3444	religion	
090607	13:21	815	JAPR14	15	3148	2	
090607	13:21	815	JAseePR19	16	500	0	
090607	13:21	815	PR19 void	17	1790		
090607	13:21	815	JAPR19	18	3611	3	
090607	13:21	815	JAseePR12	19	500	0	
090607	13:21	815	PR12 royalty	20	2942	royalty	
090607	13:21	815	JAPR12	21	4350	3	
090607	13:21	815	JAseePR02	22	500	0	
090607	13:21	815	PR02 wrinkle	23	4357	while	
090607	13:21	815	JAPR02	24	5287	3	
090607	13:21	815	JAseePR10	25	500	0	
090607	13:21	815	PR10 camel	26	5278	camera	
090607	13:21	815	JAPR10	27	3473	4	
090607	13:21	815	JAseePR15	28	500	0	
090607	13:21	815	PR15 depletion	29	3422	deception	
090607	13:21	815	JAPR15	30	3755	2	
090607	13:21	815	JAseePR20	31	500	0	
090607	13:21	815	PR20 advertisement	32	4187	advertisement	
090607	13:21	815	JAPR20	33	4567	3	
090607	13:21	815	JAseePR29	34	500	0	
090607	13:21	815	PR29 mermaid	35	2472		
090607	13:21	815	JAPR29	36	15751	6	
090607	13:21	815	JAseePR16	37	500	0	
090607	13:21	815	PR16 compulsion	38	5871	communism	
090607	13:21	815	JAPR16	39	5562	5	
090607	13:21	815	JAseePR22	40	500	0	
090607	13:21	815	PR22 ass	41	1975		
090607	13:21	815	JAPR22	42	2410	5	
090607	13:21	815	JAseeUR43	1	500	0	
090607	13:21	815	UR43 balloon	2	2190	balloon	
090607	13:21	815	JAUR43	3	6212	4	
090607	13:21	815	JAseeUR102	4	500	0	
090607	13:21	815	UR102 velocity	5	3131	velocity	
090607	13:21	815	JAUR102	6	4429	6	
090607	13:21	815	JAseeHL08	7	500	0	
090607	13:21	815	HL08 math	8	2098	math	
090607	13:21	815	JAHL08	9	5356	5	
090607	13:21	815	JAseeLH13	10	500	0	
090607	13:21	815	LH13 crease	11	3100	cease	
090607	13:21	815	JALH13	12	3203	6	
090607	13:21	815	JAseeLH08	13	500	0	
090607	13:21	815	LH08 house	14	3217	house	
090607	13:21	815	JALH08	15	2818	7	
090607	13:21	815	JAseeUR71	16	500	0	
090607	13:21	815	UR71 padding	17	6023	padding	
090607	13:21	815	JAUR71	18	3636	8	
090607	13:21	815	JAseeUR25	19	500	0	
090607	13:21	815	UR25 partner	20	7941	partner	
090607	13:21	815	JAUR25	21	13065	5	
090607	13:21	815	JAseeLH47	22	500	0	
090607	13:21	815	LH47 detergent	23	2995	detergent	
090607	13:21	815	JALH47	24	2931	8	
090607	13:21	815	JAseeLH36	25	500	0	
090607	13:21	815	LH36 gang	26	2770	gang	
090607	13:21	815	JALH36	27	3767	7	
090607	13:21	815	JAseeHL15	28	500	0	
090607	13:21	815	HL15 bomb	29	2832	bomb	
090607	13:21	815	JAHL15	30	3528	6	
090607	13:21	815	JAseeUR84	31	500	0	
090607	13:21	815	UR84 flag	32	5894	flag	
090607	13:21	815	JAUR84	33	6620	6	
090607	13:21	815	JAseeHL29	34	500	0	
090607	13:21	815	HL29 ring	35	2595	ring	
090607	13:21	815	JAHL29	36	6128	7	
090607	13:21	815	JAseeLH29	37	500	0	
090607	13:21	815	LH29 closet	38	1919		
090607	13:21	815	JALH29	39	25531	6	
090607	13:21	815	JAseeLH52	40	500	0	
090607	13:21	815	LH52 bureau	41	6798	bureau	
090607	13:21	815	JALH52	42	3346	5	
090607	13:21	815	JAseeLH48	43	500	0	
090607	13:21	815	LH48 outcome	44	2047	outcome	
090607	13:21	815	JALH48	45	3219	4	
090607	13:21	815	JAseeUR29	46	500	0	
090607	13:21	815	UR29 patrol	47	4302	patrol	
090607	13:21	815	JAUR29	48	2796	2	
090607	13:21	815	JAseeLH28	49	500	0	
090607	13:21	815	LH28 vagrant	50	1690		
090607	13:21	815	JALH28	51	18868	5	
090607	13:21	815	JAseeHL52	52	500	0	
090607	13:21	815	HL52 sand	53	1625	sand	
090607	13:21	815	JAHL52	54	2670	5	
090607	13:21	815	JAseeHL44	55	500	0	
090607	13:21	815	HL44 baseball	56	2247	baseball	
090607	13:21	815	JAHL44	57	2460	4	
090607	13:21	815	JAseeUR37	58	500	0	
090607	13:21	815	UR37 cloth	59	1841	cloth	
090607	13:21	815	JAUR37	60	5409	3	
090607	13:21	815	JAseeUR81	61	500	0	
090607	13:21	815	UR81 acid	62	2044	acid	
090607	13:21	815	JAUR81	63	2120	5	
090607	13:21	815	JAseeUR88	64	500	0	
090607	13:21	815	UR88 circus	65	1568		
090607	13:21	815	JAUR88	66	4213	3	
090607	13:21	815	JAseeLH34	67	500	0	
090607	13:21	815	LH34 panel	68	1824	panel	
090607	13:21	815	JALH34	69	6150	5	
090607	13:21	815	JAseeHL54	70	500	0	
090607	13:21	815	HL54 indian	71	2095		
090607	13:21	815	JAHL54	72	4356	3	
090607	13:21	815	JAseeUR48	73	500	0	
090607	13:21	815	UR48 democracy	74	2808	democracy	
090607	13:21	815	JAUR48	75	4823	3	
090607	13:21	815	JAseeUR40	76	500	0	
090607	13:21	815	UR40 dancer	77	5215	dancer	
090607	13:21	815	JAUR40	78	3058	5	
090607	13:21	815	JAseeHL38	79	500	0	
090607	13:21	815	HL38 boat	80	1606	boat	
090607	13:21	815	JAHL38	81	6458	3	
090607	13:21	815	JAseeLH18	82	500	0	
090607	13:21	815	LH18 edge	83	2840		
090607	13:21	815	JALH18	84	3223	8	
090607	13:21	815	JAseeUR89	85	500	0	
090607	13:21	815	UR89 crow	86	7304	crow	
090607	13:21	815	JAUR89	87	4173	4	
090607	13:21	815	JAseeUR18	88	500	0	
090607	13:21	815	UR18 relief	89	5275	relief	
090607	13:21	815	JAUR18	90	6196	6	
090607	13:21	815	JAseeUR80	91	500	0	
090607	13:21	815	UR80 antique	92	5612	control	
090607	13:21	815	JAUR80	93	3342	4	
090607	13:21	815	JAseeUR15	94	500	0	
090607	13:21	815	UR15 compass	95	3537	compass	
090607	13:21	815	JAUR15	96	2760	5	
090607	13:21	815	JAseeUR08	97	500	0	
090607	13:21	815	UR08 assistant	98	3020	assistant	
090607	13:21	815	JAUR08	99	8193	5	
090607	13:21	815	JAseeUR94	100	500	0	
090607	13:21	815	UR94 bristle	101	2767	carry	
090607	13:21	815	JAUR94	102	3285	4	
090607	13:21	815	JAseeUR61	103	500	0	
090607	13:21	815	UR61 suicide	104	4186	suicide	
090607	13:21	815	JAUR61	105	5236	5	
090607	13:21	815	JAseeUR05	106	500	0	
090607	13:21	815	UR05 lease	107	3418	lease	
090607	13:21	815	JAUR05	108	4951	5	
090607	13:21	815	JAseeHL28	109	500	0	
090607	13:21	815	HL28 bird	110	3556	blind	
090607	13:21	815	JAHL28	111	3655	1	
090607	13:21	815	JAseeUR73	112	500	0	
090607	13:21	815	UR73 kite	113	3286	knife	
090607	13:21	815	JAUR73	114	4832	8	
090607	13:21	815	JAseeUR79	115	500	0	
090607	13:21	815	UR79 beetle	116	9099	beetle	
090607	13:21	815	JAUR79	117	2897	5	
090607	13:21	815	JAseeUR31	118	500	0	
090607	13:21	815	UR31 diameter	119	2442	diameter	
090607	13:21	815	JAUR31	120	5887	6	
090607	13:21	815	JAseeUR26	121	500	0	
090607	13:21	815	UR26 eternity	122	4432	eternity	
090607	13:21	815	JAUR26	123	1743	8	
090607	13:21	815	JAseeLH21	124	500	0	
090607	13:21	815	LH21 monument	125	2385	monument	
090607	13:21	815	JALH21	126	743	9	
090607	13:21	815	JAseeHL48	127	500	0	
090607	13:21	815	HL48 airplane	128	4675	airplane	
090607	13:21	815	JAHL48	129	3011	5	
090607	13:21	815	JAseeLH10	130	500	0	
090607	13:21	815	LH10 care	131	2889	care	
090607	13:21	815	JALH10	132	13681	6	
090607	13:21	815	JAseeLH31	133	500	0	
090607	13:21	815	LH31 self	134	2842	self	
090607	13:21	815	JALH31	135	4168	4	
090607	13:21	815	JAseeUR38	136	500	0	
090607	13:21	815	UR38 energy	137	2841	energy	
090607	13:21	815	JAUR38	138	4950	3	
090607	13:21	815	JAseeUR86	139	500	0	
090607	13:21	815	UR86 boulevard	140	3331	boulevard	
090607	13:21	815	JAUR86	141	4617	1	
090607	13:21	815	JAseeUR90	142	500	0	
090607	13:21	815	UR90 sailing	143	1351		
090607	13:21	815	JAUR90	144	2540	2	
090607	13:21	815	JAseeHL30	145	500	0	
090607	13:21	815	HL30 air	146	1648	air	
090607	13:21	815	JAHL30	147	4241	2	
090607	13:21	815	JAseeUR57	148	500	0	
090607	13:21	815	UR57 benefit	149	2769	benefit	
090607	13:21	815	JAUR57	150	8031	4	
090607	13:21	815	JAseeLH12	151	500	0	
090607	13:21	815	LH12 addition	152	3715	addition	
090607	13:21	815	JALH12	153	7458	8	
090607	13:21	815	JAseeHL04	154	500	0	
090607	13:21	815	HL04 beer	155	2422	beer	
090607	13:21	815	JAHL04	156	2863	5	
090607	13:21	815	JAseeUR11	157	500	0	
090607	13:21	815	UR11 foundation	158	3408	foundation	
090607	13:21	815	JAUR11	159	3427	5	
090607	13:21	815	JAseeLH33	160	500	0	
090607	13:21	815	LH33 fable	161	2959	fable	
090607	13:21	815	JALH33	162	2159	4	
090607	13:21	815	JAseeHL11	163	500	0	
090607	13:21	815	HL11 rock	164	3358	rock	
090607	13:21	815	JAHL11	165	2141	6	
090607	13:21	815	JAseeLH06	166	500	0	
090607	13:21	815	LH06 element	167	3136	element	
090607	13:21	815	JALH06	168	4480	3	
090607	13:21	815	JAseeHL37	169	500	0	
090607	13:21	815	HL37 thread	170	3184	thread	
090607	13:21	815	JAHL37	171	7642	4	
090607	13:21	815	JAseeLH44	172	500	0	
090607	13:21	815	LH44 vessel	173	2942	vessel	
090607	13:21	815	JALH44	174	2683	5	
090607	13:21	815	JAseeLH39	175	500	0	
090607	13:21	815	LH39 reward	176	5134	reward	
090607	13:21	815	JALH39	177	1310	1	
090607	13:21	815	JAseeLH49	178	500	0	
090607	13:21	815	LH49 kindness	179	4047	kindness	
090607	13:21	815	JALH49	180	3986	5	
090607	13:21	815	JAseeUR39	181	500	0	
090607	13:21	815	UR39 faith	182	8514	faith	
090607	13:21	815	JAUR39	183	9947	9	
090607	13:21	815	JAseeUR33	184	500	0	
090607	13:21	815	UR33 horror	185	4730	horror	
090607	13:21	815	JAUR33	186	3536	6	
090607	13:21	815	JAseeUR02	187	500	0	
090607	13:21	815	UR02 comma	188	1304		
090607	13:21	815	JAUR02	189	889	5	
090607	13:21	815	JAseeUR93	190	500	0	
090607	13:21	815	UR93 catcher	191	6105	pope	
090607	13:21	815	JAUR93	192	1384	5	
090607	13:21	815	JAseeHL19	193	500	0	
090607	13:21	815	HL19 car	194	4553	cow	
090607	13:21	815	JAHL19	195	3214	2	
090607	13:21	815	JAseeUR49	196	500	0	
090607	13:21	815	UR49 casket	197	4915	cash	
090607	13:21	815	JAUR49	198	5180	6	
090607	13:21	815	JAseeHL35	199	500	0	
090607	13:21	815	HL35 cake	200	2846	cake	
090607	13:21	815	JAHL35	201	5279	8	
090607	13:21	815	JAseeUR44	202	500	0	
090607	13:21	815	UR44 rot	203	3396	hot	
090607	13:21	815	JAUR44	204	11919	4	
090607	13:21	815	JAseeUR91	205	500	0	
090607	13:21	815	UR91 anteater	206	9823	crawler	
090607	13:21	815	JAUR91	207	5928	7	
090607	13:21	815	JAseeHL46	208	500	0	
090607	13:21	815	HL46 butter	209	1839		
090607	13:21	815	JAHL46	210	2834	8	
090607	13:21	815	JAseeUR09	211	500	0	
090607	13:21	815	UR09 education	212	4597	education	
090607	13:21	815	JAUR09	213	6772	8	
090607	13:21	815	JAseeUR83	214	500	0	
090607	13:21	815	UR83 lesson	215	3890	lesson	
090607	13:21	815	JAUR83	216	2017	7	
090607	13:21	815	JAseeHL18	217	500	0	
090607	13:21	815	HL18 paper	218	1847	paper	
090607	13:21	815	JAHL18	219	3526	7	
090607	13:21	815	JAseeLH16	220	500	0	
090607	13:21	815	LH16 power	221	2989	power	
090607	13:21	815	JALH16	222	12940	4	
090607	13:21	815	JAseeHL06	223	500	0	
090607	13:21	815	HL06 egg	224	1794	egg	
090607	13:21	815	JAHL06	225	1005	1	
090607	13:21	815	JAseeHL20	226	500	0	
090607	13:21	815	HL20 wine	227	6065	wine	
090607	13:21	815	JAHL20	228	3193	5	
090607	13:21	815	JAseeHL26	229	500	0	
090607	13:21	815	HL26 light	230	5271	light	
090607	13:21	815	JAHL26	231	2045	5	
090607	13:21	815	JAseeLH42	232	500	0	
090607	13:21	815	LH42 thought	233	3049	thought	
090607	13:21	815	JALH42	234	2131	4	
090607	13:21	815	JAseeUR41	235	500	0	
090607	13:21	815	UR41 chime	236	2255	chime	
090607	13:21	815	JAUR41	237	3121	3	
090607	13:21	815	JAseePR18	238	500	0	
090607	13:21	815	PR18 clorox	239	2623	clerk	
090607	13:21	815	JAPR18	240	3858	2	
090607	13:21	815	JAseeLH35	241	500	0	
090607	13:21	815	LH35 shelter	242	4454	shelter	
090607	13:21	815	JALH35	243	3777	8	
090607	13:21	815	JAseeUR16	244	500	0	
090607	13:21	815	UR16 century	245	4493	century	
090607	13:21	815	JAUR16	246	3403	7	
090607	13:21	815	JAseeUR108	247	500	0	
090607	13:21	815	UR108 shield	248	5272	shield	
090607	13:21	815	JAUR108	249	3278	9	
090607	13:21	815	JAseeHL12	250	500	0	
090607	13:21	815	HL12 space	251	2280	space	
090607	13:21	815	JAHL12	252	3287	7	
090607	13:21	815	JAseeUR23	253	500	0	
090607	13:21	815	UR23 abundance	254	4468	abundance	
090607	13:21	815	JAUR23	255	4712	7	
090607	13:21	815	JAseeUR104	256	500	0	
090607	13:21	815	UR104 aardvark	257	5009	aardvark	
090607	13:21	815	JAUR104	258	2056	8	
090607	13:21	815	JAseeUR56	259	500	0	
090607	13:21	815	UR56 antler	260	3561	control	
090607	13:21	815	JAUR56	261	3281	6	
090607	13:21	815	JAseeHL16	262	500	0	
090607	13:21	815	HL16 broom	263	2855	broom	
090607	13:21	815	JAHL16	264	3064	8	
090607	13:21	815	JAseeHL40	265	500	0	
090607	13:21	815	HL40 temperature	266	4352	temperature	
090607	13:21	815	JAHL40	267	5960	7	
090607	13:21	815	JAseeUR101	268	500	0	
090607	13:21	815	UR101 beard	269	1275		
090607	13:21	815	JAUR101	270	6341	3	
090607	13:21	815	JAseeLH45	271	500	0	
090607	13:21	815	LH45 intellect	272	5121	intelligence	
090607	13:21	815	JALH45	273	2918	8	
090607	13:21	815	JAseeUR92	274	500	0	
090607	13:21	815	UR92 dart	275	1852	dark	
090607	13:21	815	JAUR92	276	4277	6	
090607	13:21	815	JAseeUR19	277	500	0	
090607	13:21	815	UR19 bison	278	3548	pope	
090607	13:21	815	JAUR19	279	3313	5	
090607	13:21	815	JAseeUR99	280	500	0	
090607	13:21	815	UR99 branch	281	4109	crunch	
090607	13:21	815	JAUR99	282	1797	7	
090607	13:21	815	JAseeUR10	283	500	0	
090607	13:21	815	UR10 tribe	284	1792		
090607	13:21	815	JAUR10	285	3135	4	
090607	13:21	815	JAseeUR72	286	500	0	
090607	13:21	815	UR72 band	287	6982	brand	
090607	13:21	815	JAUR72	288	3276	5	
090607	13:21	815	JAseeUR100	289	500	0	
090607	13:21	815	UR100 comb	290	3989	lock	
090607	13:21	815	JAUR100	291	4508	6	
090607	13:21	815	JAseeLH26	292	500	0	
090607	13:21	815	LH26 center	293	3624	money	
090607	13:21	815	JALH26	294	3530	5	
090607	13:21	815	JAseeUR03	295	500	0	
090607	13:21	815	UR03 vehicle	296	6665	vehicle	
090607	13:21	815	JAUR03	297	3189	5	
090607	13:21	815	JAseeHL22	298	500	0	
090607	13:21	815	HL22 problem	299	3849	problem	
090607	13:21	815	JAHL22	300	3117	4	
090607	13:21	815	JAseeLH15	301	500	0	
090607	13:21	815	LH15 blessing	302	5798	blessing	
090607	13:21	815	JALH15	303	4673	4	
090607	13:21	815	JAseeHL27	304	500	0	
090607	13:21	815	HL27 rain	305	4599	rain	
090607	13:21	815	JAHL27	306	3562	7	
090607	13:21	815	JAseeHL02	307	500	0	
090607	13:21	815	HL02 flower	308	3226	flower	
090607	13:21	815	JAHL02	309	4285	6	
090607	13:21	815	JAseeLH41	310	500	0	
090607	13:21	815	LH41 girl	311	1809	girl	
090607	13:21	815	JALH41	312	890	7	
090607	13:21	815	JAseeHL13	313	500	0	
090607	13:21	815	HL13 map	314	5861	map	
090607	13:21	815	JAHL13	315	3278	8	
090607	13:21	815	JAseeUR97	316	500	0	
090607	13:21	815	UR97 banner	317	2006	banner	
090607	13:21	815	JAUR97	318	2754	5	
090607	13:21	815	JAseeLH40	319	500	0	
090607	13:21	815	LH40 field	320	3790	field	
090607	13:21	815	JALH40	321	3618	5	
090607	13:21	815	JAseeUR51	322	500	0	
090607	13:21	815	UR51 cabbage	323	4054	baggage	
090607	13:21	815	JAUR51	324	1786	5	
090607	13:21	815	JAseeUR12	325	500	0	
090607	13:21	815	UR12 unicorn	326	5008	spoon	
090607	13:21	815	JAUR12	327	4897	5	
