date	time	subject	trialcode	trialnum	latency	response	
090607	14:52	819	JAseePR17	1	500	0	
090607	14:52	819	PR17 emerald	2	19003	roam	
090607	14:52	819	JAPR17	3	23327	6	
090607	14:52	819	JAseePR27	4	500	0	
090607	14:52	819	PR27 wheat	5	5151	wheat	
090607	14:52	819	JAPR27	6	7180	9	
090607	14:52	819	JAseePR07	7	500	0	
090607	14:52	819	PR07 bog	8	4121	dog	
090607	14:52	819	JAPR07	9	3611	7	
090607	14:52	819	JAseePR23	10	500	0	
090607	14:52	819	PR23 companion	11	5058	companion	
090607	14:52	819	JAPR23	12	3490	5	
090607	14:52	819	JAseePR06	13	500	0	
090607	14:52	819	PR06 beast	14	3754	feast	
090607	14:52	819	JAPR06	15	2903	7	
090607	14:52	819	JAseePR09	16	500	0	
090607	14:52	819	PR09 album	17	2416	blue	
090607	14:52	819	JAPR09	18	2977	5	
090607	14:52	819	JAseePR21	19	500	0	
090607	14:52	819	PR21 innocence	20	3997	innocence	
090607	14:52	819	JAPR21	21	2373	4	
090607	14:52	819	JAseePR01	22	500	0	
090607	14:52	819	PR01 cash	23	2858	cash	
090607	14:52	819	JAPR01	24	2532	6	
090607	14:52	819	JAseePR11	25	500	0	
090607	14:52	819	PR11 ounce	26	3306	ounce	
090607	14:52	819	JAPR11	27	2498	5	
090607	14:52	819	JAseePR25	28	500	0	
090607	14:52	819	PR25 saliva	29	7201	saliva	
090607	14:52	819	JAPR25	30	2647	5	
090607	14:52	819	JAseePR30	31	500	0	
090607	14:52	819	PR30 maiden	32	2717	maiden	
090607	14:52	819	JAPR30	33	1914	5	
090607	14:52	819	JAseePR03	34	500	0	
090607	14:52	819	PR03 acre	35	2595	acre	
090607	14:52	819	JAPR03	36	2122	7	
090607	14:52	819	JAseePR13	37	500	0	
090607	14:52	819	PR13 ambition	38	2443	ambition	
090607	14:52	819	JAPR13	39	3286	3	
090607	14:52	819	JAseePR04	40	500	0	
090607	14:52	819	PR04 diaper	41	2162	diaper	
090607	14:52	819	JAPR04	42	2770	6	
090607	14:52	819	JAseeUR53	1	500	0	
090607	14:52	819	UR53 hell	2	5116	hello	
090607	14:52	819	JAUR53	3	3254	6	
090607	14:52	819	JAseeUR13	4	500	0	
090607	14:52	819	UR13 almanac	5	8536	anomosity	
090607	14:52	819	JAUR13	6	1284	5	
090607	14:52	819	JAseeHL07	7	500	0	
090607	14:52	819	HL07 king	8	1931	king	
090607	14:52	819	JAHL07	9	2812	6	
090607	14:52	819	JAseeLH05	10	500	0	
090607	14:52	819	LH05 chain	11	2171	chain	
090607	14:52	819	JALH05	12	2811	4	
090607	14:52	819	JAseeLH02	13	500	0	
090607	14:52	819	LH02 harm	14	1793	harm	
090607	14:52	819	JALH02	15	2486	5	
090607	14:52	819	JAseeUR64	16	500	0	
090607	14:52	819	UR64 fist	17	2753	first	
090607	14:52	819	JAUR64	18	1960	5	
090607	14:52	819	JAseeUR32	19	500	0	
090607	14:52	819	UR32 navigator	20	4736	navigator	
090607	14:52	819	JAUR32	21	3284	7	
090607	14:52	819	JAseeLH50	22	500	0	
090607	14:52	819	LH50 measure	23	3093	measure	
090607	14:52	819	JALH50	24	3406	7	
090607	14:52	819	JAseeLH27	25	500	0	
090607	14:52	819	LH27 condition	26	2184	condition	
090607	14:52	819	JALH27	27	2645	6	
090607	14:52	819	JAseeHL17	28	500	0	
090607	14:52	819	HL17 soap	29	1858	soap	
090607	14:52	819	JAHL17	30	3982	6	
090607	14:52	819	JAseeUR74	31	500	0	
090607	14:52	819	UR74 suitcase	32	2976	suitcase	
090607	14:52	819	JAUR74	33	2680	5	
090607	14:52	819	JAseeHL36	34	500	0	
090607	14:52	819	HL36 football	35	2609	football	
090607	14:52	819	JAHL36	36	4515	1	
090607	14:52	819	JAseeLH20	37	500	0	
090607	14:52	819	LH20 violation	38	3956	case	
090607	14:52	819	JALH20	39	5871	5	
090607	14:52	819	JAseeLH54	40	500	0	
090607	14:52	819	LH54 limit	41	1968	limit	
090607	14:52	819	JALH54	42	12592	7	
090607	14:52	819	JAseeLH51	43	500	0	
090607	14:52	819	LH51 exit	44	2905	exit	
090607	14:52	819	JALH51	45	1752	8	
090607	14:52	819	JAseeUR35	46	500	0	
090607	14:52	819	UR35 cause	47	3239	clause	
090607	14:52	819	JAUR35	48	2830	8	
090607	14:52	819	JAseeLH19	49	500	0	
090607	14:52	819	LH19 snob	50	3485	snob	
090607	14:52	819	JALH19	51	1651	8	
090607	14:52	819	JAseeHL51	52	500	0	
090607	14:52	819	HL51 color	53	3316	color	
090607	14:52	819	JAHL51	54	2947	7	
090607	14:52	819	JAseeHL47	55	500	0	
090607	14:52	819	HL47 horse	56	2622	horse	
090607	14:52	819	JAHL47	57	2709	9	
090607	14:52	819	JAseeUR45	58	500	0	
090607	14:52	819	UR45 bridge	59	4059	marriage	
090607	14:52	819	JAUR45	60	2010	9	
090607	14:52	819	JAseeUR69	61	500	0	
090607	14:52	819	UR69 flashlight	62	3225	flashlight	
090607	14:52	819	JAUR69	63	2342	7	
090607	14:52	819	JAseeUR76	64	500	0	
090607	14:52	819	UR76 dignity	65	5184	digital	
090607	14:52	819	JAUR76	66	1601	6	
090607	14:52	819	JAseeLH24	67	500	0	
090607	14:52	819	LH24 feeling	68	2096	feeling	
090607	14:52	819	JALH24	69	2572	5	
090607	14:52	819	JAseeHL53	70	500	0	
090607	14:52	819	HL53 fish	71	2021	fish	
090607	14:52	819	JAHL53	72	2090	7	
090607	14:52	819	JAseeUR55	73	500	0	
090607	14:52	819	UR55 bargain	74	4380	caring	
090607	14:52	819	JAUR55	75	3741	4	
090607	14:52	819	JAseeUR50	76	500	0	
090607	14:52	819	UR50 crane	77	2730	came	
090607	14:52	819	JAUR50	78	9314	5	
090607	14:52	819	JAseeHL43	79	500	0	
090607	14:52	819	HL43 money	80	2064	money	
090607	14:52	819	JAHL43	81	1407	7	
090607	14:52	819	JAseeLH11	82	500	0	
090607	14:52	819	LH11 cancer	83	1852	cancer	
090607	14:52	819	JALH11	84	4618	6	
090607	14:52	819	JAseeUR77	85	500	0	
090607	14:52	819	UR77 uncle	86	2168	uncle	
090607	14:52	819	JAUR77	87	4335	7	
090607	14:52	819	JAseeUR27	88	500	0	
090607	14:52	819	UR27 consequence	89	3036	money	
090607	14:52	819	JAUR27	90	2218	6	
090607	14:52	819	JAseeUR68	91	500	0	
090607	14:52	819	UR68 fatigue	92	2831	fatigue	
090607	14:52	819	JAUR68	93	5399	7	
090607	14:52	819	JAseeUR22	94	500	0	
090607	14:52	819	UR22 thesaurus	95	3527	thesaurus	
090607	14:52	819	JAUR22	96	2273	7	
090607	14:52	819	JAseeUR07	97	500	0	
090607	14:52	819	UR07 gathering	98	2567	gathering	
090607	14:52	819	JAUR07	99	2665	7	
090607	14:52	819	JAseeUR95	100	500	0	
090607	14:52	819	UR95 fool	101	1691	fool	
090607	14:52	819	JAUR95	102	2028	6	
090607	14:52	819	JAseeUR63	103	500	0	
090607	14:52	819	UR63 alley	104	6532	alloy	
090607	14:52	819	JAUR63	105	3176	8	
090607	14:52	819	JAseeUR06	106	500	0	
090607	14:52	819	UR06 cello	107	3276	jello	
090607	14:52	819	JAUR06	108	3002	5	
090607	14:52	819	JAseeHL34	109	500	0	
090607	14:52	819	HL34 hunger	110	2399	hunger	
090607	14:52	819	JAHL34	111	2156	8	
090607	14:52	819	JAseeUR66	112	500	0	
090607	14:52	819	UR66 chief	113	3855	haircut	
090607	14:52	819	JAUR66	114	4125	6	
090607	14:52	819	JAseeUR67	115	500	0	
090607	14:52	819	UR67 producer	116	2559	producer	
090607	14:52	819	JAUR67	117	2446	7	
090607	14:52	819	JAseeUR36	118	500	0	
090607	14:52	819	UR36 denim	119	3661	decimal	
090607	14:52	819	JAUR36	120	3730	4	
090607	14:52	819	JAseeUR34	121	500	0	
090607	14:52	819	UR34 charity	122	4445	charity	
090607	14:52	819	JAUR34	123	5479	7	
090607	14:52	819	JAseeLH14	124	500	0	
090607	14:52	819	LH14 note	125	2002	note	
090607	14:52	819	JALH14	126	2202	3	
090607	14:52	819	JAseeHL50	127	500	0	
090607	14:52	819	HL50 doctor	128	2411	doctor	
090607	14:52	819	JAHL50	129	2511	8	
090607	14:52	819	JAseeLH03	130	500	0	
090607	14:52	819	LH03 yard	131	2431	yard	
090607	14:52	819	JALH03	132	2629	7	
090607	14:52	819	JAseeLH22	133	500	0	
090607	14:52	819	LH22 crowd	134	2333	crowd	
090607	14:52	819	JALH22	135	2478	7	
090607	14:52	819	JAseeUR46	136	500	0	
090607	14:52	819	UR46 content	137	4014	content	
090607	14:52	819	JAUR46	138	1726	7	
090607	14:52	819	JAseeUR75	139	500	0	
090607	14:52	819	UR75 awe	140	4014	awe	
090607	14:52	819	JAUR75	141	2144	7	
090607	14:52	819	JAseeUR78	142	500	0	
090607	14:52	819	UR78 blender	143	2268	blender	
090607	14:52	819	JAUR78	144	1612	7	
090607	14:52	819	JAseeHL39	145	500	0	
090607	14:52	819	HL39 book	146	1993	book	
090607	14:52	819	JAHL39	147	3035	4	
090607	14:52	819	JAseeUR62	148	500	0	
090607	14:52	819	UR62 chemistry	149	4422	chemistry	
090607	14:52	819	JAUR62	150	12104	5	
090607	14:52	819	JAseeLH04	151	500	0	
090607	14:52	819	LH04 grade	152	2150	grade	
090607	14:52	819	JALH04	153	2291	1	
090607	14:52	819	JAseeHL03	154	500	0	
090607	14:52	819	HL03 cigarette	155	3859	cigarette	
090607	14:52	819	JAHL03	156	5386	7	
090607	14:52	819	JAseeUR20	157	500	0	
090607	14:52	819	UR20 climax	158	2948	climb	
090607	14:52	819	JAUR20	159	2206	6	
090607	14:52	819	JAseeLH23	160	500	0	
090607	14:52	819	LH23 possibility	161	3287	possibly	
090607	14:52	819	JALH23	162	3342	7	
090607	14:52	819	JAseeHL09	163	500	0	
090607	14:52	819	HL09 chalk	164	1570	chalk	
090607	14:52	819	JAHL09	165	2850	6	
090607	14:52	819	JAseeLH01	166	500	0	
090607	14:52	819	LH01 brain	167	1382	brain	
090607	14:52	819	JALH01	168	1460	7	
090607	14:52	819	JAseeHL42	169	500	0	
090607	14:52	819	HL42 pie	170	1643	pie	
090607	14:52	819	JAHL42	171	2681	7	
090607	14:52	819	JAseeLH43	172	500	0	
090607	14:52	819	LH43 noise	173	3140	noise	
090607	14:52	819	JALH43	174	2056	7	
090607	14:52	819	JAseeLH30	175	500	0	
090607	14:52	819	LH30 assignment	176	7065	assignment	
090607	14:52	819	JALH30	177	3156	4	
090607	14:52	819	JAseeLH53	178	500	0	
090607	14:52	819	LH53 core	179	2061	score	
090607	14:52	819	JALH53	180	2633	7	
090607	14:52	819	JAseeUR47	181	500	0	
090607	14:52	819	UR47 chimpanzee	182	3724	chimpanzee	
090607	14:52	819	JAUR47	183	2635	8	
090607	14:52	819	JAseeUR42	184	500	0	
090607	14:52	819	UR42 sergeant	185	4404	white	
090607	14:52	819	JAUR42	186	3150	1	
090607	14:52	819	JAseeUR01	187	500	0	
090607	14:52	819	UR01 file	188	4393	file	
090607	14:52	819	JAUR01	189	3369	8	
090607	14:52	819	JAseeUR87	190	500	0	
090607	14:52	819	UR87 duty	191	3208	duty	
090607	14:52	819	JAUR87	192	7290	9	
090607	14:52	819	JAseeHL24	193	500	0	
090607	14:52	819	HL24 eye	194	1706	eye	
090607	14:52	819	JAHL24	195	3653	6	
090607	14:52	819	JAseeUR58	196	500	0	
090607	14:52	819	UR58 answer	197	2969	answer	
090607	14:52	819	JAUR58	198	1911	8	
090607	14:52	819	JAseeHL41	199	500	0	
090607	14:52	819	HL41 hand	200	1429	hand	
090607	14:52	819	JAHL41	201	5654	6	
090607	14:52	819	JAseeUR54	202	500	0	
090607	14:52	819	UR54 steam	203	2358	steam	
090607	14:52	819	JAUR54	204	1365	8	
090607	14:52	819	JAseeUR82	205	500	0	
090607	14:52	819	UR82 campus	206	2232	campus	
090607	14:52	819	JAUR82	207	2829	9	
090607	14:52	819	JAseeHL49	208	500	0	
090607	14:52	819	HL49 spice	209	2174	spice	
090607	14:52	819	JAHL49	210	1901	6	
090607	14:52	819	JAseeUR103	211	500	0	
090607	14:52	819	UR103 hula	212	3433	spatula	
090607	14:52	819	JAUR103	213	2816	8	
090607	14:52	819	JAseeUR70	214	500	0	
090607	14:52	819	UR70 pajamas	215	3369	pajamas	
090607	14:52	819	JAUR70	216	4422	9	
090607	14:52	819	JAseeHL23	217	500	0	
090607	14:52	819	HL23 baby	218	1648	baby	
090607	14:52	819	JAHL23	219	1817	6	
090607	14:52	819	JAseeLH09	220	500	0	
090607	14:52	819	LH09 piece	221	2082	piece	
090607	14:52	819	JALH09	222	1679	4	
090607	14:52	819	JAseeHL05	223	500	0	
090607	14:52	819	HL05 mountain	224	2976	mountain	
090607	14:52	819	JAHL05	225	7383	8	
090607	14:52	819	JAseeHL25	226	500	0	
090607	14:52	819	HL25 cut	227	2008	cut	
090607	14:52	819	JAHL25	228	3722	8	
090607	14:52	819	JAseeHL32	229	500	0	
090607	14:52	819	HL32 television	230	9569	television	
090607	14:52	819	JAHL32	231	1946	1	
090607	14:52	819	JAseeLH38	232	500	0	
090607	14:52	819	LH38 paint	233	1290	pain	
090607	14:52	819	JALH38	234	1467	8	
090607	14:52	819	JAseeUR52	235	500	0	
090607	14:52	819	UR52 knight	236	3876	night	
090607	14:52	819	JAUR52	237	1757	6	
090607	14:52	819	JAseePR28	238	500	0	
090607	14:52	819	PR28 challenge	239	3840	challenge	
090607	14:52	819	JAPR28	240	2695	1	
090607	14:52	819	JAseeLH25	241	500	0	
090607	14:52	819	LH25 track	242	4825	track	
090607	14:52	819	JALH25	243	1163	8	
090607	14:52	819	JAseeUR24	244	500	0	
090607	14:52	819	UR24 kid	245	3342	kid	
090607	14:52	819	JAUR24	246	3159	3	
090607	14:52	819	JAseeUR17	247	500	0	
090607	14:52	819	UR17 trance	248	5393	chance	
090607	14:52	819	JAUR17	249	1038	9	
090607	14:52	819	JAseeHL10	250	500	0	
090607	14:52	819	HL10 cow	251	1777	cow	
090607	14:52	819	JAHL10	252	8185	9	
090607	14:52	819	JAseeUR30	253	500	0	
090607	14:52	819	UR30 lover	254	2885	lover	
090607	14:52	819	JAUR30	255	2728	5	
090607	14:52	819	JAseeUR14	256	500	0	
090607	14:52	819	UR14 fudge	257	3832	fudge	
090607	14:52	819	JAUR14	258	2850	6	
090607	14:52	819	JAseeUR60	259	500	0	
090607	14:52	819	UR60 plaque	260	2618	plaque	
090607	14:52	819	JAUR60	261	1286	8	
090607	14:52	819	JAseeHL21	262	500	0	
090607	14:52	819	HL21 empire	263	2330	empire	
090607	14:52	819	JAHL21	264	6679	7	
090607	14:52	819	JAseeHL45	265	500	0	
090607	14:52	819	HL45 words	266	2350	words	
090607	14:52	819	JAHL45	267	528	8	
090607	14:52	819	JAseeUR107	268	500	0	
090607	14:52	819	UR107 cocaine	269	2711	cocaine	
090607	14:52	819	JAUR107	270	1372	8	
090607	14:52	819	JAseeLH46	271	500	0	
090607	14:52	819	LH46 submarine	272	4446	submarine	
090607	14:52	819	JALH46	273	1996	4	
090607	14:52	819	JAseeUR85	274	500	0	
090607	14:52	819	UR85 stroke	275	1971	stroke	
090607	14:52	819	JAUR85	276	3193	5	
090607	14:52	819	JAseeUR28	277	500	0	
090607	14:52	819	UR28 bang	278	2479	bang	
090607	14:52	819	JAUR28	279	1539	8	
090607	14:52	819	JAseeUR98	280	500	0	
090607	14:52	819	UR98 latch	281	2841	latch	
090607	14:52	819	JAUR98	282	1935	7	
090607	14:52	819	JAseeUR105	283	500	0	
090607	14:52	819	UR105 curtain	284	3016	curtain	
090607	14:52	819	JAUR105	285	1594	1	
090607	14:52	819	JAseeUR65	286	500	0	
090607	14:52	819	UR65 checkers	287	3724	block	
090607	14:52	819	JAUR65	288	1909	8	
090607	14:52	819	JAseeUR106	289	500	0	
090607	14:52	819	UR106 eagle	290	2177	eagle	
090607	14:52	819	JAUR106	291	1540	8	
090607	14:52	819	JAseeLH17	292	500	0	
090607	14:52	819	LH17 life	293	1815	life	
090607	14:52	819	JALH17	294	736	8	
090607	14:52	819	JAseeUR04	295	500	0	
090607	14:52	819	UR04 marsh	296	1563	marsh	
090607	14:52	819	JAUR04	297	2145	8	
090607	14:52	819	JAseeHL31	298	500	0	
090607	14:52	819	HL31 war	299	1261	war	
090607	14:52	819	JAHL31	300	1684	9	
090607	14:52	819	JAseeLH07	301	500	0	
090607	14:52	819	LH07 rear	302	1899	rear	
090607	14:52	819	JALH07	303	1901	4	
090607	14:52	819	JAseeHL33	304	500	0	
090607	14:52	819	HL33 joke	305	1714	joke	
090607	14:52	819	JAHL33	306	1519	4	
090607	14:52	819	JAseeHL01	307	500	0	
090607	14:52	819	HL01 elephant	308	2884	elephant	
090607	14:52	819	JAHL01	309	2192	5	
090607	14:52	819	JAseeLH37	310	500	0	
090607	14:52	819	LH37 pad	311	2991	pad	
090607	14:52	819	JALH37	312	1129	8	
090607	14:52	819	JAseeHL14	313	500	0	
090607	14:52	819	HL14 milk	314	1494	milk	
090607	14:52	819	JAHL14	315	1273	8	
090607	14:52	819	JAseeUR96	316	500	0	
090607	14:52	819	UR96 dessert	317	4429	dessert	
090607	14:52	819	JAUR96	318	1662	8	
090607	14:52	819	JAseeLH32	319	500	0	
090607	14:52	819	LH32 capacity	320	4217	capacity	
090607	14:52	819	JALH32	321	1973	8	
090607	14:52	819	JAseeUR59	322	500	0	
090607	14:52	819	UR59 copper	323	4432	cope	
090607	14:52	819	JAUR59	324	1141	9	
090607	14:52	819	JAseeUR21	325	500	0	
090607	14:52	819	UR21 ore	326	1463	ore	
090607	14:52	819	JAUR21	327	1237	8	
090607	14:52	819	JSseePR26	1	500	0	
090607	14:52	819	PR26 colonel	2	3699	colonel	
090607	14:52	819	JSPR26	3	9130	5	
090607	14:52	819	JSseePR24	4	500	0	
090607	14:52	819	PR24 pest	5	2742	pest	
090607	14:52	819	JSPR24	6	4649	6	
090607	14:52	819	JSseePR08	7	500	0	
090607	14:52	819	PR08 beef	8	1733	honey	
090607	14:52	819	JSPR08	9	2839	9	
090607	14:52	819	JSseePR05	10	500	0	
090607	14:52	819	PR05 calf	11	2853	calf	
090607	14:52	819	JSPR05	12	1593	9	
090607	14:52	819	JSseePR14	13	500	0	
090607	14:52	819	PR14 religion	14	1847	region	
090607	14:52	819	JSPR14	15	3390	7	
090607	14:52	819	JSseePR19	16	500	0	
090607	14:52	819	PR19 void	17	4980	sordid	
090607	14:52	819	JSPR19	18	2956	9	
090607	14:52	819	JSseePR12	19	500	0	
090607	14:52	819	PR12 royalty	20	3281	royalty	
090607	14:52	819	JSPR12	21	1921	9	
090607	14:52	819	JSseePR02	22	500	0	
090607	14:52	819	PR02 wrinkle	23	4230	nickel	
090607	14:52	819	JSPR02	24	2732	4	
090607	14:52	819	JSseePR10	25	500	0	
090607	14:52	819	PR10 camel	26	1607	camel	
090607	14:52	819	JSPR10	27	2025	8	
090607	14:52	819	JSseePR15	28	500	0	
090607	14:52	819	PR15 depletion	29	3035	competition	
090607	14:52	819	JSPR15	30	1888	1	
090607	14:52	819	JSseePR20	31	500	0	
090607	14:52	819	PR20 advertisement	32	4771	advertisement	
090607	14:52	819	JSPR20	33	2469	7	
090607	14:52	819	JSseePR29	34	500	0	
090607	14:52	819	PR29 mermaid	35	2485	mermaid	
090607	14:52	819	JSPR29	36	4083	4	
090607	14:52	819	JSseePR16	37	500	0	
090607	14:52	819	PR16 compulsion	38	2438	conclusion	
090607	14:52	819	JSPR16	39	2293	8	
090607	14:52	819	JSseePR22	40	500	0	
090607	14:52	819	PR22 ass	41	2795	ass	
090607	14:52	819	JSPR22	42	3648	8	
090607	14:52	819	JSseePR18	43	500	0	
090607	14:52	819	PR18 clorox	44	1510	color	
090607	14:52	819	JSPR18	45	1361	4	
090607	14:52	819	JSseeUR33	1	500	0	
090607	14:52	819	UR33 horror	2	3152	horror	
090607	14:52	819	JSUR33	3	3455	9	
090607	14:52	819	JSseeUR41	4	500	0	
090607	14:52	819	UR41 chime	5	1681	lime	
090607	14:52	819	JSUR41	6	1569	8	
090607	14:52	819	JSseeLH06	7	500	0	
090607	14:52	819	LH06 element	8	2342	element	
090607	14:52	819	JSLH06	9	2758	8	
090607	14:52	819	JSseeHL40	10	500	0	
090607	14:52	819	HL40 temperature	11	6948	temperature	
090607	14:52	819	JSHL40	12	5059	7	
090607	14:52	819	JSseeLH10	13	500	0	
090607	14:52	819	LH10 care	14	2129	care	
090607	14:52	819	JSLH10	15	2228	8	
090607	14:52	819	JSseeHL16	16	500	0	
090607	14:52	819	HL16 broom	17	2185	broom	
090607	14:52	819	JSHL16	18	1511	6	
090607	14:52	819	JSseeLH42	19	500	0	
090607	14:52	819	LH42 thought	20	3343	thought	
090607	14:52	819	JSLH42	21	6195	4	
090607	14:52	819	JSseeLH44	22	500	0	
090607	14:52	819	LH44 vessel	23	1949	vessel	
090607	14:52	819	JSLH44	24	2030	6	
090607	14:52	819	JSseeLH41	25	500	0	
090607	14:52	819	LH41 girl	26	2561	girl	
090607	14:52	819	JSLH41	27	1452	9	
090607	14:52	819	JSseeHL08	28	500	0	
090607	14:52	819	HL08 math	29	1154	math	
090607	14:52	819	JSHL08	30	1130	8	
090607	14:52	819	JSseeHL30	31	500	0	
090607	14:52	819	HL30 air	32	3188	arrow	
090607	14:52	819	JSHL30	33	1922	8	
090607	14:52	819	JSseeLH34	34	500	0	
090607	14:52	819	LH34 panel	35	2065	panel	
090607	14:52	819	JSLH34	36	3050	8	
090607	14:52	819	JSseeHL37	37	500	0	
090607	14:52	819	HL37 thread	38	2743	thread	
090607	14:52	819	JSHL37	39	1901	9	
090607	14:52	819	JSseeUR23	40	500	0	
090607	14:52	819	UR23 abundance	41	4940	abundance	
090607	14:52	819	JSUR23	42	5184	2	
090607	14:52	819	JSseeUR94	43	500	0	
090607	14:52	819	UR94 bristle	44	3287	bristle	
090607	14:52	819	JSUR94	45	1913	7	
090607	14:52	819	JSseeLH29	46	500	0	
090607	14:52	819	LH29 closet	47	2016	closet	
090607	14:52	819	JSLH29	48	13434	3	
090607	14:52	819	JSseeUR97	49	500	0	
090607	14:52	819	UR97 banner	50	1492	banner	
090607	14:52	819	JSUR97	51	1704	4	
090607	14:52	819	JSseeUR73	52	500	0	
090607	14:52	819	UR73 kite	53	1654	kite	
090607	14:52	819	JSUR73	54	562	3	
090607	14:52	819	JSseeHL15	55	500	0	
090607	14:52	819	HL15 bomb	56	2096	bomb	
090607	14:52	819	JSHL15	57	1686	6	
090607	14:52	819	JSseeUR05	58	500	0	
090607	14:52	819	UR05 lease	59	2389	lease	
090607	14:52	819	JSUR05	60	6014	8	
090607	14:52	819	JSseeLH40	61	500	0	
090607	14:52	819	LH40 field	62	1854	field	
090607	14:52	819	JSLH40	63	2123	1	
090607	14:52	819	JSseeUR09	64	500	0	
090607	14:52	819	UR09 education	65	4187	education	
090607	14:52	819	JSUR09	66	2353	3	
090607	14:52	819	JSseeHL18	67	500	0	
090607	14:52	819	HL18 paper	68	1536	paper	
090607	14:52	819	JSHL18	69	1611	8	
090607	14:52	819	JSseeUR61	70	500	0	
090607	14:52	819	UR61 suicide	71	1970	suicide	
090607	14:52	819	JSUR61	72	2893	1	
090607	14:52	819	JSseeLH18	73	500	0	
090607	14:52	819	LH18 edge	74	1589	edge	
090607	14:52	819	JSLH18	75	774	9	
090607	14:52	819	JSseeHL04	76	500	0	
090607	14:52	819	HL04 beer	77	1570	beer	
090607	14:52	819	JSHL04	78	1952	8	
090607	14:52	819	JSseeUR19	79	500	0	
090607	14:52	819	UR19 bison	80	2043	missio0n	
090607	14:52	819	JSUR19	81	2595	8	
090607	14:52	819	JSseeLH12	82	500	0	
090607	14:52	819	LH12 addition	83	2757	addition	
090607	14:52	819	JSLH12	84	4292	1	
090607	14:52	819	JSseeHL02	85	500	0	
090607	14:52	819	HL02 flower	86	3863	flower	
090607	14:52	819	JSHL02	87	4561	1	
090607	14:52	819	JSseeLH36	88	500	0	
090607	14:52	819	LH36 gang	89	2189	gang	
090607	14:52	819	JSLH36	90	1355	8	
090607	14:52	819	JSseeLH48	91	500	0	
090607	14:52	819	LH48 outcome	92	1858	outcome	
090607	14:52	819	JSLH48	93	4727	4	
090607	14:52	819	JSseeLH15	94	500	0	
090607	14:52	819	LH15 blessing	95	2427	blessing	
090607	14:52	819	JSLH15	96	3530	7	
090607	14:52	819	JSseeHL35	97	500	0	
090607	14:52	819	HL35 cake	98	1594	cake	
090607	14:52	819	JSHL35	99	2707	7	
090607	14:52	819	JSseeUR40	100	500	0	
090607	14:52	819	UR40 dancer	101	2756	dancer	
090607	14:52	819	JSUR40	102	1058	8	
090607	14:52	819	JSseeUR88	103	500	0	
090607	14:52	819	UR88 circus	104	2432	circus	
090607	14:52	819	JSUR88	105	3393	5	
090607	14:52	819	JSseeUR81	106	500	0	
090607	14:52	819	UR81 acid	107	1454	acid	
090607	14:52	819	JSUR81	108	1035	7	
090607	14:52	819	JSseeUR92	109	500	0	
090607	14:52	819	UR92 dart	110	1775	dart	
090607	14:52	819	JSUR92	111	3526	7	
090607	14:52	819	JSseeHL44	112	500	0	
090607	14:52	819	HL44 baseball	113	2648	baseball	
090607	14:52	819	JSHL44	114	2363	7	
090607	14:52	819	JSseeHL46	115	500	0	
090607	14:52	819	HL46 butter	116	1704	butter	
090607	14:52	819	JSHL46	117	2240	6	
090607	14:52	819	JSseeUR15	118	500	0	
090607	14:52	819	UR15 compass	119	1835	compass	
090607	14:52	819	JSUR15	120	2946	7	
090607	14:52	819	JSseeLH35	121	500	0	
090607	14:52	819	LH35 shelter	122	1666	shatter	
090607	14:52	819	JSLH35	123	2865	8	
090607	14:52	819	JSseeUR91	124	500	0	
090607	14:52	819	UR91 anteater	125	5077	theater	
090607	14:52	819	JSUR91	126	902	1	
090607	14:52	819	JSseeLH08	127	500	0	
090607	14:52	819	LH08 house	128	1435	house	
090607	14:52	819	JSLH08	129	1480	8	
090607	14:52	819	JSseeLH21	130	500	0	
090607	14:52	819	LH21 monument	131	2147	monument	
090607	14:52	819	JSLH21	132	2237	8	
090607	14:52	819	JSseeUR83	133	500	0	
090607	14:52	819	UR83 lesson	134	1572	lesson	
090607	14:52	819	JSUR83	135	1399	6	
090607	14:52	819	JSseeHL22	136	500	0	
090607	14:52	819	HL22 problem	137	2146	problem	
090607	14:52	819	JSHL22	138	7715	4	
090607	14:52	819	JSseeLH47	139	500	0	
090607	14:52	819	LH47 detergent	140	2685	detergent	
090607	14:52	819	JSLH47	141	5609	6	
090607	14:52	819	JSseeUR56	142	500	0	
090607	14:52	819	UR56 antler	143	4897	challenger	
090607	14:52	819	JSUR56	144	2602	1	
090607	14:52	819	JSseeUR80	145	500	0	
090607	14:52	819	UR80 antique	146	2122	poison	
090607	14:52	819	JSUR80	147	1404	8	
090607	14:52	819	JSseeUR11	148	500	0	
090607	14:52	819	UR11 foundation	149	3047	foundation	
090607	14:52	819	JSUR11	150	2982	1	
090607	14:52	819	JSseeHL11	151	500	0	
090607	14:52	819	HL11 rock	152	1205	rock	
090607	14:52	819	JSHL11	153	629	6	
090607	14:52	819	JSseeLH16	154	500	0	
090607	14:52	819	LH16 power	155	1649	power	
090607	14:52	819	JSLH16	156	1334	7	
090607	14:52	819	JSseeUR18	157	500	0	
090607	14:52	819	UR18 relief	158	2436	relief	
090607	14:52	819	JSUR18	159	2818	8	
090607	14:52	819	JSseeLH39	160	500	0	
090607	14:52	819	LH39 reward	161	3003	reward	
090607	14:52	819	JSLH39	162	1441	7	
090607	14:52	819	JSseeUR79	163	500	0	
090607	14:52	819	UR79 beetle	164	6921	beetle	
090607	14:52	819	JSUR79	165	1833	1	
090607	14:52	819	JSseeUR102	166	500	0	
090607	14:52	819	UR102 velocity	167	3611	vicotry	
090607	14:52	819	JSUR102	168	3215	4	
090607	14:52	819	JSseeUR101	169	500	0	
090607	14:52	819	UR101 beard	170	2063	beard	
090607	14:52	819	JSUR101	171	1165	1	
090607	14:52	819	JSseeUR72	172	500	0	
090607	14:52	819	UR72 band	173	2066	brand	
090607	14:52	819	JSUR72	174	770	7	
090607	14:52	819	JSseeUR51	175	500	0	
090607	14:52	819	UR51 cabbage	176	2507	cabbage	
090607	14:52	819	JSUR51	177	6757	6	
090607	14:52	819	JSseeHL54	178	500	0	
090607	14:52	819	HL54 indian	179	2404	indian	
090607	14:52	819	JSHL54	180	1718	7	
090607	14:52	819	JSseeUR39	181	500	0	
090607	14:52	819	UR39 faith	182	1438	faith	
090607	14:52	819	JSUR39	183	3027	1	
090607	14:52	819	JSseeUR49	184	500	0	
090607	14:52	819	UR49 casket	185	2966	casket	
090607	14:52	819	JSUR49	186	1174	8	
090607	14:52	819	JSseeLH49	187	500	0	
090607	14:52	819	LH49 kindness	188	2349	kindness	
090607	14:52	819	JSLH49	189	8057	2	
090607	14:52	819	JSseeUR10	190	500	0	
090607	14:52	819	UR10 tribe	191	1865	tribe	
090607	14:52	819	JSUR10	192	1353	9	
090607	14:52	819	JSseeHL06	193	500	0	
090607	14:52	819	HL06 egg	194	1365	egg	
090607	14:52	819	JSHL06	195	531	1	
090607	14:52	819	JSseeUR71	196	500	0	
090607	14:52	819	UR71 padding	197	2324	padding	
090607	14:52	819	JSUR71	198	593	6	
090607	14:52	819	JSseeUR25	199	500	0	
090607	14:52	819	UR25 partner	200	2199	partner	
090607	14:52	819	JSUR25	201	3053	6	
090607	14:52	819	JSseeUR03	202	500	0	
090607	14:52	819	UR03 vehicle	203	2631	vehicle	
090607	14:52	819	JSUR03	204	521	1	
090607	14:52	819	JSseeHL28	205	500	0	
090607	14:52	819	HL28 bird	206	1513	bird	
090607	14:52	819	JSHL28	207	2042	3	
090607	14:52	819	JSseeUR100	208	500	0	
090607	14:52	819	UR100 comb	209	3333	coke	
090607	14:52	819	JSUR100	210	3833	7	
090607	14:52	819	JSseeUR89	211	500	0	
090607	14:52	819	UR89 crow	212	1767	crow	
090607	14:52	819	JSUR89	213	2172	6	
090607	14:52	819	JSseeUR29	214	500	0	
090607	14:52	819	UR29 patrol	215	1747	patrol	
090607	14:52	819	JSUR29	216	2681	1	
090607	14:52	819	JSseeHL38	217	500	0	
090607	14:52	819	HL38 boat	218	2031	boat	
090607	14:52	819	JSHL38	219	2921	8	
090607	14:52	819	JSseeLH33	220	500	0	
090607	14:52	819	LH33 fable	221	4331	fable	
090607	14:52	819	JSLH33	222	1545	8	
090607	14:52	819	JSseeUR31	223	500	0	
090607	14:52	819	UR31 diameter	224	3405	diameter	
090607	14:52	819	JSUR31	225	1864	7	
090607	14:52	819	JSseeHL19	226	500	0	
090607	14:52	819	HL19 car	227	1719	car	
090607	14:52	819	JSHL19	228	3493	2	
090607	14:52	819	JSseeLH31	229	500	0	
090607	14:52	819	LH31 self	230	1744	ego	
090607	14:52	819	JSLH31	231	4912	2	
090607	14:52	819	JSseeLH13	232	500	0	
090607	14:52	819	LH13 crease	233	3705	crease	
090607	14:52	819	JSLH13	234	3445	9	
090607	14:52	819	JSseeUR37	235	500	0	
090607	14:52	819	UR37 cloth	236	1827	cloth	
090607	14:52	819	JSUR37	237	1570	1	
090607	14:52	819	JSseeHL27	238	500	0	
090607	14:52	819	HL27 rain	239	2079	rain	
090607	14:52	819	JSHL27	240	875	9	
090607	14:52	819	JSseeUR104	241	500	0	
090607	14:52	819	UR104 aardvark	242	2870	aardvark	
090607	14:52	819	JSUR104	243	2626	5	
090607	14:52	819	JSseeUR38	244	500	0	
090607	14:52	819	UR38 energy	245	2471	energy	
090607	14:52	819	JSUR38	246	634	1	
090607	14:52	819	JSseeUR90	247	500	0	
090607	14:52	819	UR90 sailing	248	2056	sailing	
090607	14:52	819	JSUR90	249	682	1	
090607	14:52	819	JSseeUR57	250	500	0	
090607	14:52	819	UR57 benefit	251	1894	benefit	
090607	14:52	819	JSUR57	252	478	9	
090607	14:52	819	JSseeUR86	253	500	0	
090607	14:52	819	UR86 boulevard	254	2952	boulevard	
090607	14:52	819	JSUR86	255	1537	8	
090607	14:52	819	JSseeLH45	256	500	0	
090607	14:52	819	LH45 intellect	257	2373	intellect	
090607	14:52	819	JSLH45	258	535	9	
090607	14:52	819	JSseeLH26	259	500	0	
090607	14:52	819	LH26 center	260	2385	center	
090607	14:52	819	JSLH26	261	1663	8	
090607	14:52	819	JSseeUR12	262	500	0	
090607	14:52	819	UR12 unicorn	263	2511	unicorn	
090607	14:52	819	JSUR12	264	446	9	
090607	14:52	819	JSseeUR108	265	500	0	
090607	14:52	819	UR108 shield	266	1448	shield	
090607	14:52	819	JSUR108	267	714	9	
090607	14:52	819	JSseeUR99	268	500	0	
090607	14:52	819	UR99 branch	269	3694	branch	
090607	14:52	819	JSUR99	270	1975	3	
090607	14:52	819	JSseeHL29	271	500	0	
090607	14:52	819	HL29 ring	272	1421	ring	
090607	14:52	819	JSHL29	273	302	9	
090607	14:52	819	JSseeHL26	274	500	0	
090607	14:52	819	HL26 light	275	3510	twilight	
090607	14:52	819	JSHL26	276	1342	4	
090607	14:52	819	JSseeLH28	277	500	0	
090607	14:52	819	LH28 vagrant	278	2346	vagrant	
090607	14:52	819	JSLH28	279	2157	5	
090607	14:52	819	JSseeHL52	280	500	0	
090607	14:52	819	HL52 sand	281	2813	sand	
090607	14:52	819	JSHL52	282	798	5	
090607	14:52	819	JSseeHL48	283	500	0	
090607	14:52	819	HL48 airplane	284	4640	airplane	
090607	14:52	819	JSHL48	285	1884	4	
090607	14:52	819	JSseeUR43	286	500	0	
090607	14:52	819	UR43 balloon	287	3249	balloon	
090607	14:52	819	JSUR43	288	1870	8	
090607	14:52	819	JSseeUR93	289	500	0	
090607	14:52	819	UR93 catcher	290	5145	catcher	
090607	14:52	819	JSUR93	291	1664	8	
090607	14:52	819	JSseeHL20	292	500	0	
090607	14:52	819	HL20 wine	293	1894	wine	
090607	14:52	819	JSHL20	294	1910	9	
090607	14:52	819	JSseeHL13	295	500	0	
090607	14:52	819	HL13 map	296	1698	map	
090607	14:52	819	JSHL13	297	551	9	
090607	14:52	819	JSseeHL12	298	500	0	
090607	14:52	819	HL12 space	299	2475	space	
090607	14:52	819	JSHL12	300	1734	6	
090607	14:52	819	JSseeUR02	301	500	0	
090607	14:52	819	UR02 comma	302	3016	comma	
090607	14:52	819	JSUR02	303	8473	2	
090607	14:52	819	JSseeUR48	304	500	0	
090607	14:52	819	UR48 democracy	305	4614	monkey	
090607	14:52	819	JSUR48	306	3255	9	
090607	14:52	819	JSseeUR08	307	500	0	
090607	14:52	819	UR08 assistant	308	3703	assistant	
090607	14:52	819	JSUR08	309	1772	6	
090607	14:52	819	JSseeUR84	310	500	0	
090607	14:52	819	UR84 flag	311	2108	flag	
090607	14:52	819	JSUR84	312	1435	8	
090607	14:52	819	JSseeUR26	313	500	0	
090607	14:52	819	UR26 eternity	314	3079	eternity	
090607	14:52	819	JSUR26	315	5908	8	
090607	14:52	819	JSseeLH52	316	500	0	
090607	14:52	819	LH52 bureau	317	5895	bureau	
090607	14:52	819	JSLH52	318	2870	8	
090607	14:52	819	JSseeUR44	319	500	0	
090607	14:52	819	UR44 rot	320	2641	arrot	
090607	14:52	819	JSUR44	321	1511	8	
090607	14:52	819	JSseeUR16	322	500	0	
090607	14:52	819	UR16 century	323	3602	century	
090607	14:52	819	JSUR16	324	1126	9	
