date	time	subject	trialcode	trialnum	latency	response	
090607	17:05	830	JAseePR17	1	500	0	
090607	17:05	830	PR17 emerald	2	18922	dog 	
090607	17:05	830	JAPR17	3	6822	5	
090607	17:05	830	JAseePR27	4	500	0	
090607	17:05	830	PR27 wheat	5	5520	wife	
090607	17:05	830	JAPR27	6	3904	6	
090607	17:05	830	JAseePR07	7	500	0	
090607	17:05	830	PR07 bog	8	5221	blues	
090607	17:05	830	JAPR07	9	3128	4	
090607	17:05	830	JAseePR23	10	500	0	
090607	17:05	830	PR23 companion	11	8479	communist	
090607	17:05	830	JAPR23	12	16577	4	
090607	17:05	830	JAseePR06	13	500	0	
090607	17:05	830	PR06 beast	14	10255	people	
090607	17:05	830	JAPR06	15	2332	3	
090607	17:05	830	JAseePR09	16	500	0	
090607	17:05	830	PR09 album	17	8405	fire	
090607	17:05	830	JAPR09	18	1183	4	
090607	17:05	830	JAseePR21	19	500	0	
090607	17:05	830	PR21 innocence	20	12120	mind	
090607	17:05	830	JAPR21	21	12115	4	
090607	17:05	830	JAseePR01	22	500	0	
090607	17:05	830	PR01 cash	23	4125	nut	
090607	17:05	830	JAPR01	24	4525	5	
090607	17:05	830	JAseePR11	25	500	0	
090607	17:05	830	PR11 ounce	26	9085	inside	
090607	17:05	830	JAPR11	27	2310	4	
090607	17:05	830	JAseePR25	28	500	0	
090607	17:05	830	PR25 saliva	29	7370	california	
090607	17:05	830	JAPR25	30	2974	4	
090607	17:05	830	JAseePR30	31	500	0	
090607	17:05	830	PR30 maiden	32	9808	people	
090607	17:05	830	JAPR30	33	2076	5	
090607	17:05	830	JAseePR03	34	500	0	
090607	17:05	830	PR03 acre	35	4259	acorn	
090607	17:05	830	JAPR03	36	1997	4	
090607	17:05	830	JAseePR13	37	500	0	
090607	17:05	830	PR13 ambition	38	6452	beginner	
090607	17:05	830	JAPR13	39	2583	4	
090607	17:05	830	JAseePR04	40	500	0	
090607	17:05	830	PR04 diaper	41	6524	jewelry	
090607	17:05	830	JAPR04	42	6284	5	
090607	17:05	830	JAseeUR53	1	500	0	
090607	17:05	830	UR53 hell	2	23681	people	
090607	17:05	830	JAUR53	3	4635	6	
090607	17:05	830	JAseeUR13	4	500	0	
090607	17:05	830	UR13 almanac	5	10640	animal	
090607	17:05	830	JAUR13	6	4042	4	
090607	17:05	830	JAseeHL07	7	500	0	
090607	17:05	830	HL07 king	8	3673	king	
090607	17:05	830	JAHL07	9	4022	8	
090607	17:05	830	JAseeLH05	10	500	0	
090607	17:05	830	LH05 chain	11	10595	tie	
090607	17:05	830	JALH05	12	1821	4	
090607	17:05	830	JAseeLH02	13	500	0	
090607	17:05	830	LH02 harm	14	4999	harmful	
090607	17:05	830	JALH02	15	4471	7	
090607	17:05	830	JAseeUR64	16	500	0	
090607	17:05	830	UR64 fist	17	5308	control	
090607	17:05	830	JAUR64	18	2609	3	
090607	17:05	830	JAseeUR32	19	500	0	
090607	17:05	830	UR32 navigator	20	22065	hay	
090607	17:05	830	JAUR32	21	1980	6	
090607	17:05	830	JAseeLH50	22	500	0	
090607	17:05	830	LH50 measure	23	6629	medium	
090607	17:05	830	JALH50	24	2083	5	
090607	17:05	830	JAseeLH27	25	500	0	
090607	17:05	830	LH27 condition	26	6146	evidence	
090607	17:05	830	JALH27	27	1848	4	
090607	17:05	830	JAseeHL17	28	500	0	
090607	17:05	830	HL17 soap	29	3622	corn	
090607	17:05	830	JAHL17	30	7748	6	
090607	17:05	830	JAseeUR74	31	500	0	
090607	17:05	830	UR74 suitcase	32	6738	poke	
090607	17:05	830	JAUR74	33	1325	4	
090607	17:05	830	JAseeHL36	34	500	0	
090607	17:05	830	HL36 football	35	8347	football	
090607	17:05	830	JAHL36	36	5266	7	
090607	17:05	830	JAseeLH20	37	500	0	
090607	17:05	830	LH20 violation	38	4959	trial	
090607	17:05	830	JALH20	39	1287	4	
090607	17:05	830	JAseeLH54	40	500	0	
090607	17:05	830	LH54 limit	41	10110	circumstance	
090607	17:05	830	JALH54	42	2365	2	
090607	17:05	830	JAseeLH51	43	500	0	
090607	17:05	830	LH51 exit	44	20645	water	
090607	17:05	830	JALH51	45	2773	2	
090607	17:05	830	JAseeUR35	46	500	0	
090607	17:05	830	UR35 cause	47	6174	beast	
090607	17:05	830	JAUR35	48	2010	3	
090607	17:05	830	JAseeLH19	49	500	0	
090607	17:05	830	LH19 snob	50	17163	tissue	
090607	17:05	830	JALH19	51	2448	6	
090607	17:05	830	JAseeHL51	52	500	0	
090607	17:05	830	HL51 color	53	5415	marker	
090607	17:05	830	JAHL51	54	1465	3	
090607	17:05	830	JAseeHL47	55	500	0	
090607	17:05	830	HL47 horse	56	6277	texas	
090607	17:05	830	JAHL47	57	2310	7	
090607	17:05	830	JAseeUR45	58	500	0	
090607	17:05	830	UR45 bridge	59	5026	marriage	
090607	17:05	830	JAUR45	60	1999	7	
090607	17:05	830	JAseeUR69	61	500	0	
090607	17:05	830	UR69 flashlight	62	4910	good	
090607	17:05	830	JAUR69	63	1364	7	
090607	17:05	830	JAseeUR76	64	500	0	
090607	17:05	830	UR76 dignity	65	4757	enter	
090607	17:05	830	JAUR76	66	557	6	
090607	17:05	830	JAseeLH24	67	500	0	
090607	17:05	830	LH24 feeling	68	7112	religion	
090607	17:05	830	JALH24	69	2318	7	
090607	17:05	830	JAseeHL53	70	500	0	
090607	17:05	830	HL53 fish	71	3493	fish	
090607	17:05	830	JAHL53	72	1735	7	
090607	17:05	830	JAseeUR55	73	500	0	
090607	17:05	830	UR55 bargain	74	6289	protistant	
090607	17:05	830	JAUR55	75	1412	7	
090607	17:05	830	JAseeUR50	76	500	0	
090607	17:05	830	UR50 crane	77	16533	pain	
090607	17:05	830	JAUR50	78	1868	5	
090607	17:05	830	JAseeHL43	79	500	0	
090607	17:05	830	HL43 money	80	3840	money	
090607	17:05	830	JAHL43	81	3968	7	
090607	17:05	830	JAseeLH11	82	500	0	
090607	17:05	830	LH11 cancer	83	6527	seafood	
090607	17:05	830	JALH11	84	1944	8	
090607	17:05	830	JAseeUR77	85	500	0	
090607	17:05	830	UR77 uncle	86	3340	book	
090607	17:05	830	JAUR77	87	1670	7	
090607	17:05	830	JAseeUR27	88	500	0	
090607	17:05	830	UR27 consequence	89	11610	control	
090607	17:05	830	JAUR27	90	2327	7	
090607	17:05	830	JAseeUR68	91	500	0	
090607	17:05	830	UR68 fatigue	92	7734	water	
090607	17:05	830	JAUR68	93	1898	7	
090607	17:05	830	JAseeUR22	94	500	0	
090607	17:05	830	UR22 thesaurus	95	3843	baseball	
090607	17:05	830	JAUR22	96	2611	10	
090607	17:05	830	JAseeUR07	97	500	0	
090607	17:05	830	UR07 gathering	98	6908	nursing	
090607	17:05	830	JAUR07	99	2106	5	
090607	17:05	830	JAseeUR95	100	500	0	
090607	17:05	830	UR95 fool	101	9415	fortune	
090607	17:05	830	JAUR95	102	2211	7	
090607	17:05	830	JAseeUR63	103	500	0	
090607	17:05	830	UR63 alley	104	4060	summer	
090607	17:05	830	JAUR63	105	1367	7	
090607	17:05	830	JAseeUR06	106	500	0	
090607	17:05	830	UR06 cello	107	5133	common	
090607	17:05	830	JAUR06	108	2336	7	
090607	17:05	830	JAseeHL34	109	500	0	
090607	17:05	830	HL34 hunger	110	3315	hunger	
090607	17:05	830	JAHL34	111	2171	10	
090607	17:05	830	JAseeUR66	112	500	0	
090607	17:05	830	UR66 chief	113	8021	haircut	
090607	17:05	830	JAUR66	114	1827	10	
090607	17:05	830	JAseeUR67	115	500	0	
090607	17:05	830	UR67 producer	116	8111	buiness	
090607	17:05	830	JAUR67	117	1814	7	
090607	17:05	830	JAseeUR36	118	500	0	
090607	17:05	830	UR36 denim	119	25528	lawsuit	
090607	17:05	830	JAUR36	120	4250	8	
090607	17:05	830	JAseeUR34	121	500	0	
090607	17:05	830	UR34 charity	122	5884	board	
090607	17:05	830	JAUR34	123	1700	7	
090607	17:05	830	JAseeLH14	124	500	0	
090607	17:05	830	LH14 note	125	5486	dollar	
090607	17:05	830	JALH14	126	1262	10	
090607	17:05	830	JAseeHL50	127	500	0	
090607	17:05	830	HL50 doctor	128	5303	doctor	
090607	17:05	830	JAHL50	129	1029	10	
090607	17:05	830	JAseeLH03	130	500	0	
090607	17:05	830	LH03 yard	131	3696	athlete	
090607	17:05	830	JALH03	132	658	3	
090607	17:05	830	JAseeLH22	133	500	0	
090607	17:05	830	LH22 crowd	134	3963	crowd	
090607	17:05	830	JALH22	135	515	8	
090607	17:05	830	JAseeUR46	136	500	0	
090607	17:05	830	UR46 content	137	6911	contents	
090607	17:05	830	JAUR46	138	2365	6	
090607	17:05	830	JAseeUR75	139	500	0	
090607	17:05	830	UR75 awe	140	4836	play	
090607	17:05	830	JAUR75	141	3123	7	
090607	17:05	830	JAseeUR78	142	500	0	
090607	17:05	830	UR78 blender	143	3635	hell	
090607	17:05	830	JAUR78	144	2151	10	
090607	17:05	830	JAseeHL39	145	500	0	
090607	17:05	830	HL39 book	146	3604	book	
090607	17:05	830	JAHL39	147	1395	10	
090607	17:05	830	JAseeUR62	148	500	0	
090607	17:05	830	UR62 chemistry	149	5975	chemistry	
090607	17:05	830	JAUR62	150	1058	7	
090607	17:05	830	JAseeLH04	151	500	0	
090607	17:05	830	LH04 grade	152	10115	messy	
090607	17:05	830	JALH04	153	2253	7	
090607	17:05	830	JAseeHL03	154	500	0	
090607	17:05	830	HL03 cigarette	155	5695	cigarette	
090607	17:05	830	JAHL03	156	1737	10	
090607	17:05	830	JAseeUR20	157	500	0	
090607	17:05	830	UR20 climax	158	5035	control	
090607	17:05	830	JAUR20	159	1739	10	
090607	17:05	830	JAseeLH23	160	500	0	
090607	17:05	830	LH23 possibility	161	5820	possibility	
090607	17:05	830	JALH23	162	815	9	
090607	17:05	830	JAseeHL09	163	500	0	
090607	17:05	830	HL09 chalk	164	4528	chalk	
090607	17:05	830	JAHL09	165	1240	9	
090607	17:05	830	JAseeLH01	166	500	0	
090607	17:05	830	LH01 brain	167	3094	brain	
090607	17:05	830	JALH01	168	1504	8	
090607	17:05	830	JAseeHL42	169	500	0	
090607	17:05	830	HL42 pie	170	4452	slice	
090607	17:05	830	JAHL42	171	1567	10	
090607	17:05	830	JAseeLH43	172	500	0	
090607	17:05	830	LH43 noise	173	4389	people	
090607	17:05	830	JALH43	174	2890	1	
090607	17:05	830	JAseeLH30	175	500	0	
090607	17:05	830	LH30 assignment	176	4732	assignment	
090607	17:05	830	JALH30	177	1447	9	
090607	17:05	830	JAseeLH53	178	500	0	
090607	17:05	830	LH53 core	179	9102	hope	
090607	17:05	830	JALH53	180	1868	2	
090607	17:05	830	JAseeUR47	181	500	0	
090607	17:05	830	UR47 chimpanzee	182	4824	chapel	
090607	17:05	830	JAUR47	183	1045	3	
090607	17:05	830	JAseeUR42	184	500	0	
090607	17:05	830	UR42 sergeant	185	8028	sergeon	
090607	17:05	830	JAUR42	186	1506	4	
090607	17:05	830	JAseeUR01	187	500	0	
090607	17:05	830	UR01 file	188	4022	fingers	
090607	17:05	830	JAUR01	189	1195	7	
090607	17:05	830	JAseeUR87	190	500	0	
090607	17:05	830	UR87 duty	191	6687	midget	
090607	17:05	830	JAUR87	192	1768	7	
090607	17:05	830	JAseeHL24	193	500	0	
090607	17:05	830	HL24 eye	194	3726	eye	
090607	17:05	830	JAHL24	195	2486	10	
090607	17:05	830	JAseeUR58	196	500	0	
090607	17:05	830	UR58 answer	197	5893	broke	
090607	17:05	830	JAUR58	198	1096	8	
090607	17:05	830	JAseeHL41	199	500	0	
090607	17:05	830	HL41 hand	200	13161	police	
090607	17:05	830	JAHL41	201	2260	4	
090607	17:05	830	JAseeUR54	202	500	0	
090607	17:05	830	UR54 steam	203	4030	loud	
090607	17:05	830	JAUR54	204	1355	4	
090607	17:05	830	JAseeUR82	205	500	0	
090607	17:05	830	UR82 campus	206	6439	president	
090607	17:05	830	JAUR82	207	2039	5	
090607	17:05	830	JAseeHL49	208	500	0	
090607	17:05	830	HL49 spice	209	4614	spice	
090607	17:05	830	JAHL49	210	1840	6	
090607	17:05	830	JAseeUR103	211	500	0	
090607	17:05	830	UR103 hula	212	3703	funny	
090607	17:05	830	JAUR103	213	924	4	
090607	17:05	830	JAseeUR70	214	500	0	
090607	17:05	830	UR70 pajamas	215	6226	tacos	
090607	17:05	830	JAUR70	216	2160	7	
090607	17:05	830	JAseeHL23	217	500	0	
090607	17:05	830	HL23 baby	218	4743	baby	
090607	17:05	830	JAHL23	219	828	7	
090607	17:05	830	JAseeLH09	220	500	0	
090607	17:05	830	LH09 piece	221	2608	shirt	
090607	17:05	830	JALH09	222	1311	9	
090607	17:05	830	JAseeHL05	223	500	0	
090607	17:05	830	HL05 mountain	224	5955	mountain	
090607	17:05	830	JAHL05	225	3907	9	
090607	17:05	830	JAseeHL25	226	500	0	
090607	17:05	830	HL25 cut	227	4144	cut	
090607	17:05	830	JAHL25	228	1821	8	
090607	17:05	830	JAseeHL32	229	500	0	
090607	17:05	830	HL32 television	230	4942	peak	
090607	17:05	830	JAHL32	231	1476	7	
090607	17:05	830	JAseeLH38	232	500	0	
090607	17:05	830	LH38 paint	233	4175	cold	
090607	17:05	830	JALH38	234	1258	8	
090607	17:05	830	JAseeUR52	235	500	0	
090607	17:05	830	UR52 knight	236	11451	knight	
090607	17:05	830	JAUR52	237	1072	7	
090607	17:05	830	JAseePR28	238	500	0	
090607	17:05	830	PR28 challenge	239	3972	jail	
090607	17:05	830	JAPR28	240	1518	8	
090607	17:05	830	JAseeLH25	241	500	0	
090607	17:05	830	LH25 track	242	3613	college	
090607	17:05	830	JALH25	243	967	8	
090607	17:05	830	JAseeUR24	244	500	0	
090607	17:05	830	UR24 kid	245	5365	family	
090607	17:05	830	JAUR24	246	2805	10	
090607	17:05	830	JAseeUR17	247	500	0	
090607	17:05	830	UR17 trance	248	9237	gold	
090607	17:05	830	JAUR17	249	1438	10	
090607	17:05	830	JAseeHL10	250	500	0	
090607	17:05	830	HL10 cow	251	3157	cow	
090607	17:05	830	JAHL10	252	1444	8	
090607	17:05	830	JAseeUR30	253	500	0	
090607	17:05	830	UR30 lover	254	2962	cancer	
090607	17:05	830	JAUR30	255	1618	10	
090607	17:05	830	JAseeUR14	256	500	0	
090607	17:05	830	UR14 fudge	257	4299	jail	
090607	17:05	830	JAUR14	258	1301	8	
090607	17:05	830	JAseeUR60	259	500	0	
090607	17:05	830	UR60 plaque	260	4670	pool	
090607	17:05	830	JAUR60	261	1404	7	
090607	17:05	830	JAseeHL21	262	500	0	
090607	17:05	830	HL21 empire	263	3090	catholic	
090607	17:05	830	JAHL21	264	1268	8	
090607	17:05	830	JAseeHL45	265	500	0	
090607	17:05	830	HL45 words	266	5136	learning	
090607	17:05	830	JAHL45	267	1483	8	
090607	17:05	830	JAseeUR107	268	500	0	
090607	17:05	830	UR107 cocaine	269	3601	cocaine	
090607	17:05	830	JAUR107	270	2617	3	
090607	17:05	830	JAseeLH46	271	500	0	
090607	17:05	830	LH46 submarine	272	3834	sub	
090607	17:05	830	JALH46	273	1367	9	
090607	17:05	830	JAseeUR85	274	500	0	
090607	17:05	830	UR85 stroke	275	5926	broken	
090607	17:05	830	JAUR85	276	7574	4	
090607	17:05	830	JAseeUR28	277	500	0	
090607	17:05	830	UR28 bang	278	5626	burgular	
090607	17:05	830	JAUR28	279	1752	8	
090607	17:05	830	JAseeUR98	280	500	0	
090607	17:05	830	UR98 latch	281	4363	lava	
090607	17:05	830	JAUR98	282	1675	7	
090607	17:05	830	JAseeUR105	283	500	0	
090607	17:05	830	UR105 curtain	284	5031	fluid	
090607	17:05	830	JAUR105	285	2636	9	
090607	17:05	830	JAseeUR65	286	500	0	
090607	17:05	830	UR65 checkers	287	5795	saw	
090607	17:05	830	JAUR65	288	7636	8	
090607	17:05	830	JAseeUR106	289	500	0	
090607	17:05	830	UR106 eagle	290	3781	sound	
090607	17:05	830	JAUR106	291	1951	9	
090607	17:05	830	JAseeLH17	292	500	0	
090607	17:05	830	LH17 life	293	3995	year	
090607	17:05	830	JALH17	294	1464	9	
090607	17:05	830	JAseeUR04	295	500	0	
090607	17:05	830	UR04 marsh	296	3884	mask	
090607	17:05	830	JAUR04	297	1387	7	
090607	17:05	830	JAseeHL31	298	500	0	
090607	17:05	830	HL31 war	299	2735	war	
090607	17:05	830	JAHL31	300	1689	3	
090607	17:05	830	JAseeLH07	301	500	0	
090607	17:05	830	LH07 rear	302	6784	finally	
090607	17:05	830	JALH07	303	1374	3	
090607	17:05	830	JAseeHL33	304	500	0	
090607	17:05	830	HL33 joke	305	4471	joke	
090607	17:05	830	JAHL33	306	1380	8	
090607	17:05	830	JAseeHL01	307	500	0	
090607	17:05	830	HL01 elephant	308	5325	elephant	
090607	17:05	830	JAHL01	309	1941	9	
090607	17:05	830	JAseeLH37	310	500	0	
090607	17:05	830	LH37 pad	311	6551	medicine	
090607	17:05	830	JALH37	312	1789	9	
090607	17:05	830	JAseeHL14	313	500	0	
090607	17:05	830	HL14 milk	314	3001	milk	
090607	17:05	830	JAHL14	315	2232	2	
090607	17:05	830	JAseeUR96	316	500	0	
090607	17:05	830	UR96 dessert	317	4900	desert	
090607	17:05	830	JAUR96	318	3767	3	
090607	17:05	830	JAseeLH32	319	500	0	
090607	17:05	830	LH32 capacity	320	4534	capacity	
090607	17:05	830	JALH32	321	2425	7	
090607	17:05	830	JAseeUR59	322	500	0	
090607	17:05	830	UR59 copper	323	3685	cheater	
090607	17:05	830	JAUR59	324	1300	4	
090607	17:05	830	JAseeUR21	325	500	0	
090607	17:05	830	UR21 ore	326	5734	present	
090607	17:05	830	JAUR21	327	2825	2	
090607	17:05	830	JSPR26	1	11958	2	
090607	17:05	830	PR26 colonel	2	8640	people	
090607	17:05	830	JSPR24	3	8618	9	
090607	17:05	830	PR24 pest	4	4117	pace	
090607	17:05	830	JSPR08	5	3549	9	
090607	17:05	830	PR08 beef	6	4129	control	
090607	17:05	830	JSPR05	7	4155	10	
090607	17:05	830	PR05 calf	8	3248	saw	
090607	17:05	830	JSPR14	9	8943	7	
090607	17:05	830	PR14 religion	10	8997	religion	
090607	17:05	830	JSPR19	11	7615	10	
090607	17:05	830	PR19 void	12	3506	several	
090607	17:05	830	JSPR12	13	4062	6	
090607	17:05	830	PR12 royalty	14	5107	hitler	
090607	17:05	830	JSPR02	15	1512	8	
090607	17:05	830	PR02 wrinkle	16	3843	week	
090607	17:05	830	JSPR10	17	2107	8	
090607	17:05	830	PR10 camel	18	4343	camera	
090607	17:05	830	JSPR15	19	1819	4	
090607	17:05	830	PR15 depletion	20	4828	smells	
090607	17:05	830	JSPR20	21	4217	10	
090607	17:05	830	PR20 advertisement	22	6491	control	
090607	17:05	830	JSPR29	23	3967	9	
090607	17:05	830	PR29 mermaid	24	24286	meteroid	
090607	17:05	830	JSPR16	25	2887	2	
090607	17:05	830	PR16 compulsion	26	7646	people	
090607	17:05	830	JSPR22	27	3871	8	
090607	17:05	830	PR22 ass	28	6323	pavement	
090607	17:05	830	JSPR18	29	4132	3	
090607	17:05	830	PR18 clorox	30	11326	stuffed	
090607	17:05	830	JSseeUR33	1	500	0	
090607	17:05	830	UR33 horror	2	12834	terrorist	
090607	17:05	830	JSUR33	3	11455	7	
090607	17:05	830	JSseeUR41	4	500	0	
090607	17:05	830	UR41 chime	5	6681	crime	
090607	17:05	830	JSUR41	6	3482	1	
090607	17:05	830	JSseeLH06	7	500	0	
090607	17:05	830	LH06 element	8	4288	element	
090607	17:05	830	JSLH06	9	4850	9	
090607	17:05	830	JSseeHL40	10	500	0	
090607	17:05	830	HL40 temperature	11	9736	temperature	
090607	17:05	830	JSHL40	12	5179	7	
090607	17:05	830	JSseeLH10	13	500	0	
090607	17:05	830	LH10 care	14	5311	children	
090607	17:05	830	JSLH10	15	2418	3	
090607	17:05	830	JSseeHL16	16	500	0	
090607	17:05	830	HL16 broom	17	5527	lubbock	
090607	17:05	830	JSHL16	18	3232	1	
090607	17:05	830	JSseeLH42	19	500	0	
090607	17:05	830	LH42 thought	20	3687	thought	
090607	17:05	830	JSLH42	21	1519	9	
090607	17:05	830	JSseeLH44	22	500	0	
090607	17:05	830	LH44 vessel	23	2638	needle	
090607	17:05	830	JSLH44	24	1128	8	
090607	17:05	830	JSseeLH41	25	500	0	
090607	17:05	830	LH41 girl	26	3159	brother	
090607	17:05	830	JSLH41	27	2178	3	
090607	17:05	830	JSseeHL08	28	500	0	
090607	17:05	830	HL08 math	29	2168	math	
090607	17:05	830	JSHL08	30	2075	10	
090607	17:05	830	JSseeHL30	31	500	0	
090607	17:05	830	HL30 air	32	3195	air	
090607	17:05	830	JSHL30	33	928	8	
090607	17:05	830	JSseeLH34	34	500	0	
090607	17:05	830	LH34 panel	35	2694	people	
090607	17:05	830	JSLH34	36	1353	3	
090607	17:05	830	JSseeHL37	37	500	0	
090607	17:05	830	HL37 thread	38	3559	thread	
090607	17:05	830	JSHL37	39	866	5	
090607	17:05	830	JSseeUR23	40	500	0	
090607	17:05	830	UR23 abundance	41	2635	control	
090607	17:05	830	JSUR23	42	1027	4	
090607	17:05	830	JSseeUR94	43	500	0	
090607	17:05	830	UR94 bristle	44	6022	papers	
090607	17:05	830	JSUR94	45	1504	2	
090607	17:05	830	JSseeLH29	46	500	0	
090607	17:05	830	LH29 closet	47	5717	cupholder	
090607	17:05	830	JSLH29	48	3354	8	
090607	17:05	830	JSseeUR97	49	500	0	
090607	17:05	830	UR97 banner	50	4363	people	
090607	17:05	830	JSUR97	51	799	8	
090607	17:05	830	JSseeUR73	52	500	0	
090607	17:05	830	UR73 kite	53	6350	clothe	
090607	17:05	830	JSUR73	54	531	9	
090607	17:05	830	JSseeHL15	55	500	0	
090607	17:05	830	HL15 bomb	56	4556	science	
090607	17:05	830	JSHL15	57	1022	8	
090607	17:05	830	JSseeUR05	58	500	0	
090607	17:05	830	UR05 lease	59	3625	jump	
090607	17:05	830	JSUR05	60	1180	10	
090607	17:05	830	JSseeLH40	61	500	0	
090607	17:05	830	LH40 field	62	3771	radius	
090607	17:05	830	JSLH40	63	2338	3	
090607	17:05	830	JSseeUR09	64	500	0	
090607	17:05	830	UR09 education	65	6680	publisher	
090607	17:05	830	JSUR09	66	1608	10	
090607	17:05	830	JSseeHL18	67	500	0	
090607	17:05	830	HL18 paper	68	2790	paper	
090607	17:05	830	JSHL18	69	1142	9	
090607	17:05	830	JSseeUR61	70	500	0	
090607	17:05	830	UR61 suicide	71	4460	low	
090607	17:05	830	JSUR61	72	972	8	
090607	17:05	830	JSseeLH18	73	500	0	
090607	17:05	830	LH18 edge	74	2981	edge	
090607	17:05	830	JSLH18	75	991	4	
090607	17:05	830	JSseeHL04	76	500	0	
090607	17:05	830	HL04 beer	77	2332	war	
090607	17:05	830	JSHL04	78	1074	9	
090607	17:05	830	JSseeUR19	79	500	0	
090607	17:05	830	UR19 bison	80	3703	private	
090607	17:05	830	JSUR19	81	1357	8	
090607	17:05	830	JSseeLH12	82	500	0	
090607	17:05	830	LH12 addition	83	3726	additional	
090607	17:05	830	JSLH12	84	3365	5	
090607	17:05	830	JSseeHL02	85	500	0	
090607	17:05	830	HL02 flower	86	4277	flower	
090607	17:05	830	JSHL02	87	4732	8	
090607	17:05	830	JSseeLH36	88	500	0	
090607	17:05	830	LH36 gang	89	2691	gang	
090607	17:05	830	JSLH36	90	834	9	
090607	17:05	830	JSseeLH48	91	500	0	
090607	17:05	830	LH48 outcome	92	3105	outcome	
090607	17:05	830	JSLH48	93	791	9	
090607	17:05	830	JSseeLH15	94	500	0	
090607	17:05	830	LH15 blessing	95	2865	blessing	
090607	17:05	830	JSLH15	96	981	10	
090607	17:05	830	JSseeHL35	97	500	0	
090607	17:05	830	HL35 cake	98	1856	cake	
090607	17:05	830	JSHL35	99	1065	10	
090607	17:05	830	JSseeUR40	100	500	0	
090607	17:05	830	UR40 dancer	101	3956	shampoo	
090607	17:05	830	JSUR40	102	1808	9	
090607	17:05	830	JSseeUR88	103	500	0	
090607	17:05	830	UR88 circus	104	3526	dallas	
090607	17:05	830	JSUR88	105	936	9	
090607	17:05	830	JSseeUR81	106	500	0	
090607	17:05	830	UR81 acid	107	4779	degree	
090607	17:05	830	JSUR81	108	2626	9	
090607	17:05	830	JSseeUR92	109	500	0	
090607	17:05	830	UR92 dart	110	3781	light	
090607	17:05	830	JSUR92	111	1581	1	
090607	17:05	830	JSseeHL44	112	500	0	
090607	17:05	830	HL44 baseball	113	3939	baseball	
090607	17:05	830	JSHL44	114	2537	10	
090607	17:05	830	JSseeHL46	115	500	0	
090607	17:05	830	HL46 butter	116	2118	butter	
090607	17:05	830	JSHL46	117	1537	10	
090607	17:05	830	JSseeUR15	118	500	0	
090607	17:05	830	UR15 compass	119	6976	love	
090607	17:05	830	JSUR15	120	2301	2	
090607	17:05	830	JSseeLH35	121	500	0	
090607	17:05	830	LH35 shelter	122	2539	center	
090607	17:05	830	JSLH35	123	1205	2	
090607	17:05	830	JSseeUR91	124	500	0	
090607	17:05	830	UR91 anteater	125	4286	animal	
090607	17:05	830	JSUR91	126	1069	3	
090607	17:05	830	JSseeLH08	127	500	0	
090607	17:05	830	LH08 house	128	7016	house	
090607	17:05	830	JSLH08	129	1859	10	
090607	17:05	830	JSseeLH21	130	500	0	
090607	17:05	830	LH21 monument	131	2502	death	
090607	17:05	830	JSLH21	132	1084	10	
090607	17:05	830	JSseeUR83	133	500	0	
090607	17:05	830	UR83 lesson	134	6084	temperature	
090607	17:05	830	JSUR83	135	2004	3	
090607	17:05	830	JSseeHL22	136	500	0	
090607	17:05	830	HL22 problem	137	3636	problem	
090607	17:05	830	JSHL22	138	2194	9	
090607	17:05	830	JSseeLH47	139	500	0	
090607	17:05	830	LH47 detergent	140	3601	diligent	
090607	17:05	830	JSLH47	141	1177	2	
090607	17:05	830	JSseeUR56	142	500	0	
090607	17:05	830	UR56 antler	143	6488	anger	
090607	17:05	830	JSUR56	144	1200	2	
090607	17:05	830	JSseeUR80	145	500	0	
090607	17:05	830	UR80 antique	146	2421	shot	
090607	17:05	830	JSUR80	147	1106	1	
090607	17:05	830	JSseeUR11	148	500	0	
090607	17:05	830	UR11 foundation	149	6267	twelve	
090607	17:05	830	JSUR11	150	2176	10	
090607	17:05	830	JSseeHL11	151	500	0	
090607	17:05	830	HL11 rock	152	1386	rock	
090607	17:05	830	JSHL11	153	1215	10	
090607	17:05	830	JSseeLH16	154	500	0	
090607	17:05	830	LH16 power	155	4797	power	
090607	17:05	830	JSLH16	156	1000	10	
090607	17:05	830	JSseeUR18	157	500	0	
090607	17:05	830	UR18 relief	158	1998	time	
090607	17:05	830	JSUR18	159	1361	2	
090607	17:05	830	JSseeLH39	160	500	0	
090607	17:05	830	LH39 reward	161	3627	clean	
090607	17:05	830	JSLH39	162	1698	10	
090607	17:05	830	JSseeUR79	163	500	0	
090607	17:05	830	UR79 beetle	164	8540	vegetable	
090607	17:05	830	JSUR79	165	2142	8	
090607	17:05	830	JSseeUR102	166	500	0	
090607	17:05	830	UR102 velocity	167	5750	state	
090607	17:05	830	JSUR102	168	952	3	
090607	17:05	830	JSseeUR101	169	500	0	
090607	17:05	830	UR101 beard	170	3358	soup	
090607	17:05	830	JSUR101	171	2334	2	
090607	17:05	830	JSseeUR72	172	500	0	
090607	17:05	830	UR72 band	173	7482	healthy	
090607	17:05	830	JSUR72	174	2064	8	
090607	17:05	830	JSseeUR51	175	500	0	
090607	17:05	830	UR51 cabbage	176	6004	control	
090607	17:05	830	JSUR51	177	1022	4	
090607	17:05	830	JSseeHL54	178	500	0	
090607	17:05	830	HL54 indian	179	3502	indian	
090607	17:05	830	JSHL54	180	1393	10	
090607	17:05	830	JSseeUR39	181	500	0	
090607	17:05	830	UR39 faith	182	2096	death	
090607	17:05	830	JSUR39	183	883	10	
090607	17:05	830	JSseeUR49	184	500	0	
090607	17:05	830	UR49 casket	185	4339	cash	
090607	17:05	830	JSUR49	186	1075	9	
090607	17:05	830	JSseeLH49	187	500	0	
090607	17:05	830	LH49 kindness	188	3401	friend	
090607	17:05	830	JSLH49	189	728	3	
090607	17:05	830	JSseeUR10	190	500	0	
090607	17:05	830	UR10 tribe	191	5221	foxtrot	
090607	17:05	830	JSUR10	192	2099	8	
090607	17:05	830	JSseeHL06	193	500	0	
090607	17:05	830	HL06 egg	194	2475	egg	
090607	17:05	830	JSHL06	195	1815	10	
090607	17:05	830	JSseeUR71	196	500	0	
090607	17:05	830	UR71 padding	197	3213	water	
090607	17:05	830	JSUR71	198	901	9	
090607	17:05	830	JSseeUR25	199	500	0	
090607	17:05	830	UR25 partner	200	4284	dressing	
090607	17:05	830	JSUR25	201	1536	4	
090607	17:05	830	JSseeUR03	202	500	0	
090607	17:05	830	UR03 vehicle	203	3244	vehicle	
090607	17:05	830	JSUR03	204	783	8	
090607	17:05	830	JSseeHL28	205	500	0	
090607	17:05	830	HL28 bird	206	3010	bird	
090607	17:05	830	JSHL28	207	1343	9	
090607	17:05	830	JSseeUR100	208	500	0	
090607	17:05	830	UR100 comb	209	2755	center	
090607	17:05	830	JSUR100	210	2574	3	
090607	17:05	830	JSseeUR89	211	500	0	
090607	17:05	830	UR89 crow	212	2166	hit	
090607	17:05	830	JSUR89	213	1076	9	
090607	17:05	830	JSseeUR29	214	500	0	
090607	17:05	830	UR29 patrol	215	4362	water	
090607	17:05	830	JSUR29	216	1119	4	
090607	17:05	830	JSseeHL38	217	500	0	
090607	17:05	830	HL38 boat	218	2646	boat	
090607	17:05	830	JSHL38	219	997	10	
090607	17:05	830	JSseeLH33	220	500	0	
090607	17:05	830	LH33 fable	221	3719	fantasy	
090607	17:05	830	JSLH33	222	800	8	
090607	17:05	830	JSseeUR31	223	500	0	
090607	17:05	830	UR31 diameter	224	4694	diameter	
090607	17:05	830	JSUR31	225	650	4	
090607	17:05	830	JSseeHL19	226	500	0	
090607	17:05	830	HL19 car	227	1526	cows	
090607	17:05	830	JSHL19	228	595	8	
090607	17:05	830	JSseeLH31	229	500	0	
090607	17:05	830	LH31 self	230	2816	head	
090607	17:05	830	JSLH31	231	610	8	
090607	17:05	830	JSseeLH13	232	500	0	
090607	17:05	830	LH13 crease	233	3806	increase	
090607	17:05	830	JSLH13	234	806	8	
090607	17:05	830	JSseeUR37	235	500	0	
090607	17:05	830	UR37 cloth	236	1847	ball	
090607	17:05	830	JSUR37	237	780	3	
090607	17:05	830	JSseeHL27	238	500	0	
090607	17:05	830	HL27 rain	239	4084	rain	
090607	17:05	830	JSHL27	240	1104	10	
090607	17:05	830	JSseeUR104	241	500	0	
090607	17:05	830	UR104 aardvark	242	2272	letters	
090607	17:05	830	JSUR104	243	804	10	
090607	17:05	830	JSseeUR38	244	500	0	
090607	17:05	830	UR38 energy	245	2461	freinds	
090607	17:05	830	JSUR38	246	1056	9	
090607	17:05	830	JSseeUR90	247	500	0	
090607	17:05	830	UR90 sailing	248	2827	money	
090607	17:05	830	JSUR90	249	717	10	
090607	17:05	830	JSseeUR57	250	500	0	
090607	17:05	830	UR57 benefit	251	2602	berries	
090607	17:05	830	JSUR57	252	549	3	
090607	17:05	830	JSseeUR86	253	500	0	
090607	17:05	830	UR86 boulevard	254	2594	shoulder	
090607	17:05	830	JSUR86	255	515	9	
090607	17:05	830	JSseeLH45	256	500	0	
090607	17:05	830	LH45 intellect	257	1680	mind	
090607	17:05	830	JSLH45	258	662	3	
090607	17:05	830	JSseeLH26	259	500	0	
090607	17:05	830	LH26 center	260	2218	center	
090607	17:05	830	JSLH26	261	519	8	
090607	17:05	830	JSseeUR12	262	500	0	
090607	17:05	830	UR12 unicorn	263	1692	corn	
090607	17:05	830	JSUR12	264	444	9	
090607	17:05	830	JSseeUR108	265	500	0	
090607	17:05	830	UR108 shield	266	4058	shield	
090607	17:05	830	JSUR108	267	586	3	
090607	17:05	830	JSseeUR99	268	500	0	
090607	17:05	830	UR99 branch	269	6173	cupcakes	
090607	17:05	830	JSUR99	270	2280	4	
090607	17:05	830	JSseeHL29	271	500	0	
090607	17:05	830	HL29 ring	272	2918	number	
090607	17:05	830	JSHL29	273	1569	4	
090607	17:05	830	JSseeHL26	274	500	0	
090607	17:05	830	HL26 light	275	4592	hit	
090607	17:05	830	JSHL26	276	755	3	
090607	17:05	830	JSseeLH28	277	500	0	
090607	17:05	830	LH28 vagrant	278	5210	valigiant	
090607	17:05	830	JSLH28	279	2301	8	
090607	17:05	830	JSseeHL52	280	500	0	
090607	17:05	830	HL52 sand	281	2171	lead	
090607	17:05	830	JSHL52	282	1455	8	
090607	17:05	830	JSseeHL48	283	500	0	
090607	17:05	830	HL48 airplane	284	2241	plain	
090607	17:05	830	JSHL48	285	735	4	
090607	17:05	830	JSseeUR43	286	500	0	
090607	17:05	830	UR43 balloon	287	2180	vote	
090607	17:05	830	JSUR43	288	942	8	
090607	17:05	830	JSseeUR93	289	500	0	
090607	17:05	830	UR93 catcher	290	7250	ancient	
090607	17:05	830	JSUR93	291	677	8	
090607	17:05	830	JSseeHL20	292	500	0	
090607	17:05	830	HL20 wine	293	1813	tie	
090607	17:05	830	JSHL20	294	947	8	
090607	17:05	830	JSseeHL13	295	500	0	
090607	17:05	830	HL13 map	296	3192	map	
090607	17:05	830	JSHL13	297	876	10	
090607	17:05	830	JSseeHL12	298	500	0	
090607	17:05	830	HL12 space	299	2223	usA	
090607	17:05	830	JSHL12	300	1215	2	
090607	17:05	830	JSseeUR02	301	500	0	
090607	17:05	830	UR02 comma	302	4139	meteroid	
090607	17:05	830	JSUR02	303	1719	9	
090607	17:05	830	JSseeUR48	304	500	0	
090607	17:05	830	UR48 democracy	305	2885	liberal	
090607	17:05	830	JSUR48	306	691	9	
090607	17:05	830	JSseeUR08	307	500	0	
090607	17:05	830	UR08 assistant	308	6727	astronaught	
090607	17:05	830	JSUR08	309	1841	8	
090607	17:05	830	JSseeUR84	310	500	0	
090607	17:05	830	UR84 flag	311	1424	lit	
090607	17:05	830	JSUR84	312	673	8	
090607	17:05	830	JSseeUR26	313	500	0	
090607	17:05	830	UR26 eternity	314	4465	ethnicity	
090607	17:05	830	JSUR26	315	791	3	
090607	17:05	830	JSseeLH52	316	500	0	
090607	17:05	830	LH52 bureau	317	1667	cia	
090607	17:05	830	JSLH52	318	1572	3	
090607	17:05	830	JSseeUR44	319	500	0	
090607	17:05	830	UR44 rot	320	7436	necklce	
090607	17:05	830	JSUR44	321	1116	8	
090607	17:05	830	JSseeUR16	322	500	0	
090607	17:05	830	UR16 century	323	3939	century	
090607	17:05	830	JSUR16	324	951	9	
