date	time	subject	trialcode	trialnum	latency	response	
091107	10:58	841	JAseePR17	1	500	0	
091107	10:58	841	PR17 emerald	2	30902	elm	
091107	10:58	841	JAPR17	3	29991	5	
091107	10:58	841	JAseePR27	4	500	0	
091107	10:58	841	PR27 wheat	5	17997	wife	
091107	10:58	841	JAPR27	6	17801	9	
091107	10:58	841	JAseePR07	7	500	0	
091107	10:58	841	PR07 bog	8	8332	blues	
091107	10:58	841	JAPR07	9	10559	5	
091107	10:58	841	JAseePR23	10	500	0	
091107	10:58	841	PR23 companion	11	8988	communism	
091107	10:58	841	JAPR23	12	10525	3	
091107	10:58	841	JAseePR06	13	500	0	
091107	10:58	841	PR06 beast	14	8012	beauty	
091107	10:58	841	JAPR06	15	10289	5	
091107	10:58	841	JAseePR09	16	500	0	
091107	10:58	841	PR09 album	17	9652	bell	
091107	10:58	841	JAPR09	18	16212	3	
091107	10:58	841	JAseePR21	19	500	0	
091107	10:58	841	PR21 innocence	20	6859	fact	
091107	10:58	841	JAPR21	21	13808	3	
091107	10:58	841	JAseePR01	22	500	0	
091107	10:58	841	PR01 cash	23	9866	cashew	
091107	10:58	841	JAPR01	24	12101	5	
091107	10:58	841	JAseePR11	25	500	0	
091107	10:58	841	PR11 ounce	26	9687	breeze	
091107	10:58	841	JAPR11	27	5532	7	
091107	10:58	841	JAseePR25	28	500	0	
091107	10:58	841	PR25 saliva	29	10739	saltline	
091107	10:58	841	JAPR25	30	22219	8	
091107	10:58	841	JAseePR30	31	500	0	
091107	10:58	841	PR30 maiden	32	4287	men	
091107	10:58	841	JAPR30	33	24296	7	
091107	10:58	841	JAseePR03	34	500	0	
091107	10:58	841	PR03 acre	35	3739	nut	
091107	10:58	841	JAPR03	36	21754	9	
091107	10:58	841	JAseePR13	37	500	0	
091107	10:58	841	PR13 ambition	38	7883		
091107	10:58	841	JAPR13	39	10152	4	
091107	10:58	841	JAseePR04	40	500	0	
091107	10:58	841	PR04 diaper	41	9884	earing	
091107	10:58	841	JAPR04	42	12955	9	
091107	10:58	841	JAseeUR53	1	500	0	
091107	10:58	841	UR53 hell	2	6382	dress	
091107	10:58	841	JAUR53	3	7142	7	
091107	10:58	841	JAseeUR13	4	500	0	
091107	10:58	841	UR13 almanac	5	4972	animal	
091107	10:58	841	JAUR13	6	18667	7	
091107	10:58	841	JAseeHL07	7	500	0	
091107	10:58	841	HL07 king	8	6060	chair	
091107	10:58	841	JAHL07	9	9183	5	
091107	10:58	841	JAseeLH05	10	500	0	
091107	10:58	841	LH05 chain	11	7061	glue	
091107	10:58	841	JALH05	12	9264	3	
091107	10:58	841	JAseeLH02	13	500	0	
091107	10:58	841	LH02 harm	14	7852	alarm	
091107	10:58	841	JALH02	15	11229	8	
091107	10:58	841	JAseeUR64	16	500	0	
091107	10:58	841	UR64 fist	17	3465	first	
091107	10:58	841	JAUR64	18	29214	3	
091107	10:58	841	JAseeUR32	19	500	0	
091107	10:58	841	UR32 navigator	20	7925	navigator	
091107	10:58	841	JAUR32	21	4009	7	
091107	10:58	841	JAseeLH50	22	500	0	
091107	10:58	841	LH50 measure	23	5609	average	
091107	10:58	841	JALH50	24	6236	6	
091107	10:58	841	JAseeLH27	25	500	0	
091107	10:58	841	LH27 condition	26	3760		
091107	10:58	841	JALH27	27	11023	4	
091107	10:58	841	JAseeHL17	28	500	0	
091107	10:58	841	HL17 soap	29	5451	soap	
091107	10:58	841	JAHL17	30	14538	7	
091107	10:58	841	JAseeUR74	31	500	0	
091107	10:58	841	UR74 suitcase	32	5647	sunrise	
091107	10:58	841	JAUR74	33	12119	6	
091107	10:58	841	JAseeHL36	34	500	0	
091107	10:58	841	HL36 football	35	4580	football	
091107	10:58	841	JAHL36	36	6888	2	
091107	10:58	841	JAseeLH20	37	500	0	
091107	10:58	841	LH20 violation	38	6456	victom	
091107	10:58	841	JALH20	39	6514	9	
091107	10:58	841	JAseeLH54	40	500	0	
091107	10:58	841	LH54 limit	41	3505	range	
091107	10:58	841	JALH54	42	4848	7	
091107	10:58	841	JAseeLH51	43	500	0	
091107	10:58	841	LH51 exit	44	4329	outlet	
091107	10:58	841	JALH51	45	7958	8	
091107	10:58	841	JAseeUR35	46	500	0	
091107	10:58	841	UR35 cause	47	5223	bear	
091107	10:58	841	JAUR35	48	13904	7	
091107	10:58	841	JAseeLH19	49	500	0	
091107	10:58	841	LH19 snob	50	4730	nose	
091107	10:58	841	JALH19	51	6154	9	
091107	10:58	841	JAseeHL51	52	500	0	
091107	10:58	841	HL51 color	53	4177	red	
091107	10:58	841	JAHL51	54	7359	3	
091107	10:58	841	JAseeHL47	55	500	0	
091107	10:58	841	HL47 horse	56	3668	horse	
091107	10:58	841	JAHL47	57	5299	7	
091107	10:58	841	JAseeUR45	58	500	0	
091107	10:58	841	UR45 bridge	59	5536	groom	
091107	10:58	841	JAUR45	60	6958	9	
091107	10:58	841	JAseeUR69	61	500	0	
091107	10:58	841	UR69 flashlight	62	6254	cherry	
091107	10:58	841	JAUR69	63	6675	5	
091107	10:58	841	JAseeUR76	64	500	0	
091107	10:58	841	UR76 dignity	65	3916	minus	
091107	10:58	841	JAUR76	66	6526	4	
091107	10:58	841	JAseeLH24	67	500	0	
091107	10:58	841	LH24 feeling	68	5634	being	
091107	10:58	841	JALH24	69	8921	8	
091107	10:58	841	JAseeHL53	70	500	0	
091107	10:58	841	HL53 fish	71	3365	fish	
091107	10:58	841	JAHL53	72	6328	7	
091107	10:58	841	JAseeUR55	73	500	0	
091107	10:58	841	UR55 bargain	74	4996	babtist	
091107	10:58	841	JAUR55	75	5741	5	
091107	10:58	841	JAseeUR50	76	500	0	
091107	10:58	841	UR50 crane	77	7854	exercise	
091107	10:58	841	JAUR50	78	5156	6	
091107	10:58	841	JAseeHL43	79	500	0	
091107	10:58	841	HL43 money	80	3141	money	
091107	10:58	841	JAHL43	81	10759	9	
091107	10:58	841	JAseeLH11	82	500	0	
091107	10:58	841	LH11 cancer	83	6604	cancer	
091107	10:58	841	JALH11	84	7148	7	
091107	10:58	841	JAseeUR77	85	500	0	
091107	10:58	841	UR77 uncle	86	10575	unit	
091107	10:58	841	JAUR77	87	8072	7	
091107	10:58	841	JAseeUR27	88	500	0	
091107	10:58	841	UR27 consequence	89	15270		
091107	10:58	841	JAUR27	90	7042	5	
091107	10:58	841	JAseeUR68	91	500	0	
091107	10:58	841	UR68 fatigue	92	3191	water	
091107	10:58	841	JAUR68	93	12732	7	
091107	10:58	841	JAseeUR22	94	500	0	
091107	10:58	841	UR22 thesaurus	95	5331	third	
091107	10:58	841	JAUR22	96	9106	8	
091107	10:58	841	JAseeUR07	97	500	0	
091107	10:58	841	UR07 gathering	98	11235	bandage	
091107	10:58	841	JAUR07	99	7564	7	
091107	10:58	841	JAseeUR95	100	500	0	
091107	10:58	841	UR95 fool	101	4307	after	
091107	10:58	841	JAUR95	102	8539	8	
091107	10:58	841	JAseeUR63	103	500	0	
091107	10:58	841	UR63 alley	104	4446	allergy	
091107	10:58	841	JAUR63	105	10367	7	
091107	10:58	841	JAseeUR06	106	500	0	
091107	10:58	841	UR06 cello	107	3962	heat	
091107	10:58	841	JAUR06	108	14206	4	
091107	10:58	841	JAseeHL34	109	500	0	
091107	10:58	841	HL34 hunger	110	5409	cancer	
091107	10:58	841	JAHL34	111	6372	7	
091107	10:58	841	JAseeUR66	112	500	0	
091107	10:58	841	UR66 chief	113	4361	chili	
091107	10:58	841	JAUR66	114	4833	5	
091107	10:58	841	JAseeUR67	115	500	0	
091107	10:58	841	UR67 producer	116	5209	profit	
091107	10:58	841	JAUR67	117	8862	7	
091107	10:58	841	JAseeUR36	118	500	0	
091107	10:58	841	UR36 denim	119	2539		
091107	10:58	841	JAUR36	120	5108	5	
091107	10:58	841	JAseeUR34	121	500	0	
091107	10:58	841	UR34 charity	122	6202	chart	
091107	10:58	841	JAUR34	123	22544	8	
091107	10:58	841	JAseeLH14	124	500	0	
091107	10:58	841	LH14 note	125	3292	name	
091107	10:58	841	JALH14	126	3770	4	
091107	10:58	841	JAseeHL50	127	500	0	
091107	10:58	841	HL50 doctor	128	4994	stars	
091107	10:58	841	JAHL50	129	10497	5	
091107	10:58	841	JAseeLH03	130	500	0	
091107	10:58	841	LH03 yard	131	3640	yard	
091107	10:58	841	JALH03	132	8178	4	
091107	10:58	841	JAseeLH22	133	500	0	
091107	10:58	841	LH22 crowd	134	2769	lot	
091107	10:58	841	JALH22	135	6460	7	
091107	10:58	841	JAseeUR46	136	500	0	
091107	10:58	841	UR46 content	137	6260	container	
091107	10:58	841	JAUR46	138	4585	8	
091107	10:58	841	JAseeUR75	139	500	0	
091107	10:58	841	UR75 awe	140	4239	blood	
091107	10:58	841	JAUR75	141	10082	8	
091107	10:58	841	JAseeUR78	142	500	0	
091107	10:58	841	UR78 blender	143	6594	blaze	
091107	10:58	841	JAUR78	144	5763	8	
091107	10:58	841	JAseeHL39	145	500	0	
091107	10:58	841	HL39 book	146	3696	book	
091107	10:58	841	JAHL39	147	9513	7	
091107	10:58	841	JAseeUR62	148	500	0	
091107	10:58	841	UR62 chemistry	149	4337	chemistry	
091107	10:58	841	JAUR62	150	11082	4	
091107	10:58	841	JAseeLH04	151	500	0	
091107	10:58	841	LH04 grade	152	6770	spot	
091107	10:58	841	JALH04	153	3642	9	
091107	10:58	841	JAseeHL03	154	500	0	
091107	10:58	841	HL03 cigarette	155	10302	cigarette	
091107	10:58	841	JAHL03	156	5667	8	
091107	10:58	841	JAseeUR20	157	500	0	
091107	10:58	841	UR20 climax	158	4445	climate	
091107	10:58	841	JAUR20	159	2810	4	
091107	10:58	841	JAseeLH23	160	500	0	
091107	10:58	841	LH23 possibility	161	11105	possibility	
091107	10:58	841	JALH23	162	6909	8	
091107	10:58	841	JAseeHL09	163	500	0	
091107	10:58	841	HL09 chalk	164	3941	chalk	
091107	10:58	841	JAHL09	165	5125	4	
091107	10:58	841	JAseeLH01	166	500	0	
091107	10:58	841	LH01 brain	167	6160	einstein	
091107	10:58	841	JALH01	168	11164	7	
091107	10:58	841	JAseeHL42	169	500	0	
091107	10:58	841	HL42 pie	170	5321	bread	
091107	10:58	841	JAHL42	171	4442	8	
091107	10:58	841	JAseeLH43	172	500	0	
091107	10:58	841	LH43 noise	173	8358	background	
091107	10:58	841	JALH43	174	17476	5	
091107	10:58	841	JAseeLH30	175	500	0	
091107	10:58	841	LH30 assignment	176	5315	statment	
091107	10:58	841	JALH30	177	4260	8	
091107	10:58	841	JAseeLH53	178	500	0	
091107	10:58	841	LH53 core	179	4036	meaning	
091107	10:58	841	JALH53	180	4550	8	
091107	10:58	841	JAseeUR47	181	500	0	
091107	10:58	841	UR47 chimpanzee	182	6808	chimney	
091107	10:58	841	JAUR47	183	9533	6	
091107	10:58	841	JAseeUR42	184	500	0	
091107	10:58	841	UR42 sergeant	185	5141	server	
091107	10:58	841	JAUR42	186	6608	7	
091107	10:58	841	JAseeUR01	187	500	0	
091107	10:58	841	UR01 file	188	3229	nails	
091107	10:58	841	JAUR01	189	10891	7	
091107	10:58	841	JAseeUR87	190	500	0	
091107	10:58	841	UR87 duty	191	3093	elf	
091107	10:58	841	JAUR87	192	4406	5	
091107	10:58	841	JAseeHL24	193	500	0	
091107	10:58	841	HL24 eye	194	2711	pig	
091107	10:58	841	JAHL24	195	4235	9	
091107	10:58	841	JAseeUR58	196	500	0	
091107	10:58	841	UR58 answer	197	5506	ankle	
091107	10:58	841	JAUR58	198	4941	7	
091107	10:58	841	JAseeHL41	199	500	0	
091107	10:58	841	HL41 hand	200	2838	hand	
091107	10:58	841	JAHL41	201	7799	4	
091107	10:58	841	JAseeUR54	202	500	0	
091107	10:58	841	UR54 steam	203	3999	blast	
091107	10:58	841	JAUR54	204	5926	4	
091107	10:58	841	JAseeUR82	205	500	0	
091107	10:58	841	UR82 campus	206	3616	campain	
091107	10:58	841	JAUR82	207	5738	6	
091107	10:58	841	JAseeHL49	208	500	0	
091107	10:58	841	HL49 spice	209	4027	pizza	
091107	10:58	841	JAHL49	210	8252	4	
091107	10:58	841	JAseeUR103	211	500	0	
091107	10:58	841	UR103 hula	212	5057	humor	
091107	10:58	841	JAUR103	213	2319	7	
091107	10:58	841	JAseeUR70	214	500	0	
091107	10:58	841	UR70 pajamas	215	5242	pan	
091107	10:58	841	JAUR70	216	3047	5	
091107	10:58	841	JAseeHL23	217	500	0	
091107	10:58	841	HL23 baby	218	4084	baby	
091107	10:58	841	JAHL23	219	7922	8	
091107	10:58	841	JAseeLH09	220	500	0	
091107	10:58	841	LH09 piece	221	3836	article	
091107	10:58	841	JALH09	222	2661	7	
091107	10:58	841	JAseeHL05	223	500	0	
091107	10:58	841	HL05 mountain	224	2822	mountain	
091107	10:58	841	JAHL05	225	9582	7	
091107	10:58	841	JAseeHL25	226	500	0	
091107	10:58	841	HL25 cut	227	7365	knife	
091107	10:58	841	JAHL25	228	4752	4	
091107	10:58	841	JAseeHL32	229	500	0	
091107	10:58	841	HL32 television	230	7067		
091107	10:58	841	JAHL32	231	5148	2	
091107	10:58	841	JAseeLH38	232	500	0	
091107	10:58	841	LH38 paint	233	4986	coat	
091107	10:58	841	JALH38	234	5558	5	
091107	10:58	841	JAseeUR52	235	500	0	
091107	10:58	841	UR52 knight	236	3218	knot	
091107	10:58	841	JAUR52	237	6009	7	
091107	10:58	841	JAseePR28	238	500	0	
091107	10:58	841	PR28 challenge	239	3593	cage	
091107	10:58	841	JAPR28	240	2509	7	
091107	10:58	841	JAseeLH25	241	500	0	
091107	10:58	841	LH25 track	242	1481		
091107	10:58	841	JALH25	243	5691	8	
091107	10:58	841	JAseeUR24	244	500	0	
091107	10:58	841	UR24 kid	245	6053	kids	
091107	10:58	841	JAUR24	246	7976	6	
091107	10:58	841	JAseeUR17	247	500	0	
091107	10:58	841	UR17 trance	248	4782	treasure	
091107	10:58	841	JAUR17	249	4345	8	
091107	10:58	841	JAseeHL10	250	500	0	
091107	10:58	841	HL10 cow	251	4393	pasture	
091107	10:58	841	JAHL10	252	4669	5	
091107	10:58	841	JAseeUR30	253	500	0	
091107	10:58	841	UR30 lover	254	5384	lump	
091107	10:58	841	JAUR30	255	4273	4	
091107	10:58	841	JAseeUR14	256	500	0	
091107	10:58	841	UR14 fudge	257	2628		
091107	10:58	841	JAUR14	258	7076	5	
091107	10:58	841	JAseeUR60	259	500	0	
091107	10:58	841	UR60 plaque	260	4174	deck	
091107	10:58	841	JAUR60	261	10519	8	
091107	10:58	841	JAseeHL21	262	500	0	
091107	10:58	841	HL21 empire	263	3773	empire	
091107	10:58	841	JAHL21	264	3752	8	
091107	10:58	841	JAseeHL45	265	500	0	
091107	10:58	841	HL45 words	266	5448	vocabulary	
091107	10:58	841	JAHL45	267	8488	7	
091107	10:58	841	JAseeUR107	268	500	0	
091107	10:58	841	UR107 cocaine	269	3497	spider	
091107	10:58	841	JAUR107	270	5235	8	
091107	10:58	841	JAseeLH46	271	500	0	
091107	10:58	841	LH46 submarine	272	2927	hero	
091107	10:58	841	JALH46	273	3879	1	
091107	10:58	841	JAseeUR85	274	500	0	
091107	10:58	841	UR85 stroke	275	5769	stomp	
091107	10:58	841	JAUR85	276	3396	4	
091107	10:58	841	JAseeUR28	277	500	0	
091107	10:58	841	UR28 bang	278	4419	bandit	
091107	10:58	841	JAUR28	279	5040	6	
091107	10:58	841	JAseeUR98	280	500	0	
091107	10:58	841	UR98 latch	281	2784	lava	
091107	10:58	841	JAUR98	282	6940	4	
091107	10:58	841	JAseeUR105	283	500	0	
091107	10:58	841	UR105 curtain	284	3806	fluid	
091107	10:58	841	JAUR105	285	7565	2	
091107	10:58	841	JAseeUR65	286	500	0	
091107	10:58	841	UR65 checkers	287	5909	cracker	
091107	10:58	841	JAUR65	288	12257	9	
091107	10:58	841	JAseeUR106	289	500	0	
091107	10:58	841	UR106 eagle	290	4980	hear	
091107	10:58	841	JAUR106	291	8051	7	
091107	10:58	841	JAseeLH17	292	500	0	
091107	10:58	841	LH17 life	293	5530	years	
091107	10:58	841	JALH17	294	10253	5	
091107	10:58	841	JAseeUR04	295	500	0	
091107	10:58	841	UR04 marsh	296	4546	mask	
091107	10:58	841	JAUR04	297	3831	8	
091107	10:58	841	JAseeHL31	298	500	0	
091107	10:58	841	HL31 war	299	3123	world	
091107	10:58	841	JAHL31	300	6709	7	
091107	10:58	841	JAseeLH07	301	500	0	
091107	10:58	841	LH07 rear	302	2783	end	
091107	10:58	841	JALH07	303	10572	10	
091107	10:58	841	JAseeHL33	304	500	0	
091107	10:58	841	HL33 joke	305	2706	joke	
091107	10:58	841	JAHL33	306	2618	4	
091107	10:58	841	JAseeHL01	307	500	0	
091107	10:58	841	HL01 elephant	308	5581	elephant	
091107	10:58	841	JAHL01	309	5896	7	
091107	10:58	841	JAseeLH37	310	500	0	
091107	10:58	841	LH37 pad	311	11090	pill	
091107	10:58	841	JALH37	312	6547	4	
091107	10:58	841	JAseeHL14	313	500	0	
091107	10:58	841	HL14 milk	314	2490	milk	
091107	10:58	841	JAHL14	315	6699	8	
091107	10:58	841	JAseeUR96	316	500	0	
091107	10:58	841	UR96 dessert	317	3541	dream	
091107	10:58	841	JAUR96	318	6768	7	
091107	10:58	841	JAseeLH32	319	500	0	
091107	10:58	841	LH32 capacity	320	10358	capability	
091107	10:58	841	JALH32	321	7009	9	
091107	10:58	841	JAseeUR59	322	500	0	
091107	10:58	841	UR59 copper	323	2506	paper	
091107	10:58	841	JAUR59	324	8688	4	
091107	10:58	841	JAseeUR21	325	500	0	
091107	10:58	841	UR21 ore	326	4823	candy	
091107	10:58	841	JAUR21	327	6003	8	
091107	10:58	841	JSseePR26	1	500	0	
091107	10:58	841	PR26 colonel	2	4199	face	
091107	10:58	841	JSPR26	3	22632	2	
091107	10:58	841	JSseePR24	4	500	0	
091107	10:58	841	PR24 pest	5	11872	face	
091107	10:58	841	JSPR24	6	10688	8	
091107	10:58	841	JSseePR08	7	500	0	
091107	10:58	841	PR08 beef	8	4599	honey	
091107	10:58	841	JSPR08	9	7725	3	
091107	10:58	841	JSseePR05	10	500	0	
091107	10:58	841	PR05 calf	11	4116	day	
091107	10:58	841	JSPR05	12	34304	4	
091107	10:58	841	JSseePR14	13	500	0	
091107	10:58	841	PR14 religion	14	4745	grief	
091107	10:58	841	JSPR14	15	4596	8	
091107	10:58	841	JSseePR19	16	500	0	
091107	10:58	841	PR19 void	17	3227	oath	
091107	10:58	841	JSPR19	18	5848	10	
091107	10:58	841	JSseePR12	19	500	0	
091107	10:58	841	PR12 royalty	20	4571	dictater	
091107	10:58	841	JSPR12	21	4534	9	
091107	10:58	841	JSseePR02	22	500	0	
091107	10:58	841	PR02 wrinkle	23	3772	monday	
091107	10:58	841	JSPR02	24	3989	2	
091107	10:58	841	JSseePR10	25	500	0	
091107	10:58	841	PR10 camel	26	4840	case	
091107	10:58	841	JSPR10	27	9842	1	
091107	10:58	841	JSseePR15	28	500	0	
091107	10:58	841	PR15 depletion	29	5646	oder	
091107	10:58	841	JSPR15	30	3144	8	
091107	10:58	841	JSseePR20	31	500	0	
091107	10:58	841	PR20 advertisement	32	5972	choice	
091107	10:58	841	JSPR20	33	4906	5	
091107	10:58	841	JSseePR29	34	500	0	
091107	10:58	841	PR29 mermaid	35	12282	meteorite	
091107	10:58	841	JSPR29	36	3106	9	
091107	10:58	841	JSseePR16	37	500	0	
091107	10:58	841	PR16 compulsion	38	2349		
091107	10:58	841	JSPR16	39	16289	9	
091107	10:58	841	JSseePR22	40	500	0	
091107	10:58	841	PR22 ass	41	3367	cement	
091107	10:58	841	JSPR22	42	11540	9	
091107	10:58	841	JSseePR18	43	500	0	
091107	10:58	841	PR18 clorox	44	4821	fog	
091107	10:58	841	JSPR18	45	4611	5	
091107	10:58	841	JSseeUR33	1	500	0	
091107	10:58	841	UR33 horror	2	4281	crises	
091107	10:58	841	JSUR33	3	31939	7	
091107	10:58	841	JSseeUR41	4	500	0	
091107	10:58	841	UR41 chime	5	4117	chill	
091107	10:58	841	JSUR41	6	4263	5	
091107	10:58	841	JSseeLH06	7	500	0	
091107	10:58	841	LH06 element	8	3300	part	
091107	10:58	841	JSLH06	9	7337	9	
091107	10:58	841	JSseeHL40	10	500	0	
091107	10:58	841	HL40 temperature	11	6728	temperature	
091107	10:58	841	JSHL40	12	14322	1	
091107	10:58	841	JSseeLH10	13	500	0	
091107	10:58	841	LH10 care	14	5918	danger	
091107	10:58	841	JSLH10	15	21105	8	
091107	10:58	841	JSseeHL16	16	500	0	
091107	10:58	841	HL16 broom	17	3843	broom	
091107	10:58	841	JSHL16	18	6201	2	
091107	10:58	841	JSseeLH42	19	500	0	
091107	10:58	841	LH42 thought	20	4219	thought	
091107	10:58	841	JSLH42	21	3491	10	
091107	10:58	841	JSseeLH44	22	500	0	
091107	10:58	841	LH44 vessel	23	2978	vein	
091107	10:58	841	JSLH44	24	3920	2	
091107	10:58	841	JSseeLH41	25	500	0	
091107	10:58	841	LH41 girl	26	4798	sister	
091107	10:58	841	JSLH41	27	2659	1	
091107	10:58	841	JSseeHL08	28	500	0	
091107	10:58	841	HL08 math	29	3345	math	
091107	10:58	841	JSHL08	30	3278	8	
091107	10:58	841	JSseeHL30	31	500	0	
091107	10:58	841	HL30 air	32	3022	anger	
091107	10:58	841	JSHL30	33	18591	4	
091107	10:58	841	JSseeLH34	34	500	0	
091107	10:58	841	LH34 panel	35	6932	jury	
091107	10:58	841	JSLH34	36	4734	7	
091107	10:58	841	JSseeHL37	37	500	0	
091107	10:58	841	HL37 thread	38	3921	thread	
091107	10:58	841	JSHL37	39	3866	7	
091107	10:58	841	JSseeUR23	40	500	0	
091107	10:58	841	UR23 abundance	41	4766	attendance	
091107	10:58	841	JSUR23	42	8376	1	
091107	10:58	841	JSseeUR94	43	500	0	
091107	10:58	841	UR94 bristle	44	5501	briefcase	
091107	10:58	841	JSUR94	45	10321	8	
091107	10:58	841	JSseeLH29	46	500	0	
091107	10:58	841	LH29 closet	47	3109	cup	
091107	10:58	841	JSLH29	48	15347	4	
091107	10:58	841	JSseeUR97	49	500	0	
091107	10:58	841	UR97 banner	50	3515	dinner	
091107	10:58	841	JSUR97	51	2876	7	
091107	10:58	841	JSseeUR73	52	500	0	
091107	10:58	841	UR73 kite	53	6613	napkin	
091107	10:58	841	JSUR73	54	3406	7	
091107	10:58	841	JSseeHL15	55	500	0	
091107	10:58	841	HL15 bomb	56	2532	atom	
091107	10:58	841	JSHL15	57	2624	4	
091107	10:58	841	JSseeUR05	58	500	0	
091107	10:58	841	UR05 lease	59	2206		
091107	10:58	841	JSUR05	60	1804	10	
091107	10:58	841	JSseeLH40	61	500	0	
091107	10:58	841	LH40 field	62	3191	field	
091107	10:58	841	JSLH40	63	5579	7	
091107	10:58	841	JSseeUR09	64	500	0	
091107	10:58	841	UR09 education	65	4009	education	
091107	10:58	841	JSUR09	66	4630	8	
091107	10:58	841	JSseeHL18	67	500	0	
091107	10:58	841	HL18 paper	68	2665	paper	
091107	10:58	841	JSHL18	69	10512	6	
091107	10:58	841	JSseeUR61	70	500	0	
091107	10:58	841	UR61 suicide	71	5951	submit	
091107	10:58	841	JSUR61	72	2801	4	
091107	10:58	841	JSseeLH18	73	500	0	
091107	10:58	841	LH18 edge	74	1602		
091107	10:58	841	JSLH18	75	3221	7	
091107	10:58	841	JSseeHL04	76	500	0	
091107	10:58	841	HL04 beer	77	4198	soldier	
091107	10:58	841	JSHL04	78	8130	8	
091107	10:58	841	JSseeUR19	79	500	0	
091107	10:58	841	UR19 bison	80	1724		
091107	10:58	841	JSUR19	81	5259	3	
091107	10:58	841	JSseeLH12	82	500	0	
091107	10:58	841	LH12 addition	83	3713	birht	
091107	10:58	841	JSLH12	84	5587	9	
091107	10:58	841	JSseeHL02	85	500	0	
091107	10:58	841	HL02 flower	86	3746	flower	
091107	10:58	841	JSHL02	87	23070	1	
091107	10:58	841	JSseeLH36	88	500	0	
091107	10:58	841	LH36 gang	89	2222		
091107	10:58	841	JSLH36	90	6184	5	
091107	10:58	841	JSseeLH48	91	500	0	
091107	10:58	841	LH48 outcome	92	4437	effect	
091107	10:58	841	JSLH48	93	4071	8	
091107	10:58	841	JSseeLH15	94	500	0	
091107	10:58	841	LH15 blessing	95	4536	ok	
091107	10:58	841	JSLH15	96	8238	10	
091107	10:58	841	JSseeHL35	97	500	0	
091107	10:58	841	HL35 cake	98	3055	cake	
091107	10:58	841	JSHL35	99	5082	7	
091107	10:58	841	JSseeUR40	100	500	0	
091107	10:58	841	UR40 dancer	101	6350	dandruf	
091107	10:58	841	JSUR40	102	10682	2	
091107	10:58	841	JSseeUR88	103	500	0	
091107	10:58	841	UR88 circus	104	3629	city	
091107	10:58	841	JSUR88	105	5514	1	
091107	10:58	841	JSseeUR81	106	500	0	
091107	10:58	841	UR81 acid	107	4591	college	
091107	10:58	841	JSUR81	108	2734	5	
091107	10:58	841	JSseeUR92	109	500	0	
091107	10:58	841	UR92 dart	110	3486	dark	
091107	10:58	841	JSUR92	111	5788	7	
091107	10:58	841	JSseeHL44	112	500	0	
091107	10:58	841	HL44 baseball	113	5456	baseball	
091107	10:58	841	JSHL44	114	2296	10	
091107	10:58	841	JSseeHL46	115	500	0	
091107	10:58	841	HL46 butter	116	3421	butter	
091107	10:58	841	JSHL46	117	3827	1	
091107	10:58	841	JSseeUR15	118	500	0	
091107	10:58	841	UR15 compass	119	3954	compasion	
091107	10:58	841	JSUR15	120	3307	8	
091107	10:58	841	JSseeLH35	121	500	0	
091107	10:58	841	LH35 shelter	122	2981	camp	
091107	10:58	841	JSLH35	123	1922	3	
091107	10:58	841	JSseeUR91	124	500	0	
091107	10:58	841	UR91 anteater	125	4152	ant	
091107	10:58	841	JSUR91	126	4452	7	
091107	10:58	841	JSseeLH08	127	500	0	
091107	10:58	841	LH08 house	128	5114	town	
091107	10:58	841	JSLH08	129	1932	8	
091107	10:58	841	JSseeLH21	130	500	0	
091107	10:58	841	LH21 monument	131	6947	memorial	
091107	10:58	841	JSLH21	132	3240	9	
091107	10:58	841	JSseeUR83	133	500	0	
091107	10:58	841	UR83 lesson	134	2841	lesson	
091107	10:58	841	JSUR83	135	2556	8	
091107	10:58	841	JSseeHL22	136	500	0	
091107	10:58	841	HL22 problem	137	3654	problem	
091107	10:58	841	JSHL22	138	3789	9	
091107	10:58	841	JSseeLH47	139	500	0	
091107	10:58	841	LH47 detergent	140	4097	cleaner	
091107	10:58	841	JSLH47	141	5657	10	
091107	10:58	841	JSseeUR56	142	500	0	
091107	10:58	841	UR56 antler	143	5044	excitement	
091107	10:58	841	JSUR56	144	8073	5	
091107	10:58	841	JSseeUR80	145	500	0	
091107	10:58	841	UR80 antique	146	3800	antidote	
091107	10:58	841	JSUR80	147	2683	9	
091107	10:58	841	JSseeUR11	148	500	0	
091107	10:58	841	UR11 foundation	149	4727	fourteen	
091107	10:58	841	JSUR11	150	3543	1	
091107	10:58	841	JSseeHL11	151	500	0	
091107	10:58	841	HL11 rock	152	3088	rock	
091107	10:58	841	JSHL11	153	2381	2	
091107	10:58	841	JSseeLH16	154	500	0	
091107	10:58	841	LH16 power	155	2625	power	
091107	10:58	841	JSLH16	156	2095	7	
091107	10:58	841	JSseeUR18	157	500	0	
091107	10:58	841	UR18 relief	158	4868	memory	
091107	10:58	841	JSUR18	159	3417	9	
091107	10:58	841	JSseeLH39	160	500	0	
091107	10:58	841	LH39 reward	161	3443	towel	
091107	10:58	841	JSLH39	162	2580	2	
091107	10:58	841	JSseeUR79	163	500	0	
091107	10:58	841	UR79 beetle	164	4704	beet	
091107	10:58	841	JSUR79	165	2572	7	
091107	10:58	841	JSseeUR102	166	500	0	
091107	10:58	841	UR102 velocity	167	4041	victor	
091107	10:58	841	JSUR102	168	3813	5	
091107	10:58	841	JSseeUR101	169	500	0	
091107	10:58	841	UR101 beard	170	1593		
091107	10:58	841	JSUR101	171	2016	1	
091107	10:58	841	JSseeUR72	172	500	0	
091107	10:58	841	UR72 band	173	3755	fruit	
091107	10:58	841	JSUR72	174	2336	7	
091107	10:58	841	JSseeUR51	175	500	0	
091107	10:58	841	UR51 cabbage	176	1645		
091107	10:58	841	JSUR51	177	4938	6	
091107	10:58	841	JSseeHL54	178	500	0	
091107	10:58	841	HL54 indian	179	2631	home	
091107	10:58	841	JSHL54	180	6344	1	
091107	10:58	841	JSseeUR39	181	500	0	
091107	10:58	841	UR39 faith	182	2896	faith	
091107	10:58	841	JSUR39	183	2763	8	
091107	10:58	841	JSseeUR49	184	500	0	
091107	10:58	841	UR49 casket	185	2788	clerk	
091107	10:58	841	JSUR49	186	1722	8	
091107	10:58	841	JSseeLH49	187	500	0	
091107	10:58	841	LH49 kindness	188	3430	favor	
091107	10:58	841	JSLH49	189	4189	5	
091107	10:58	841	JSseeUR10	190	500	0	
091107	10:58	841	UR10 tribe	191	2957	fox	
091107	10:58	841	JSUR10	192	3676	1	
091107	10:58	841	JSseeHL06	193	500	0	
091107	10:58	841	HL06 egg	194	2979	ox	
091107	10:58	841	JSHL06	195	4833	1	
091107	10:58	841	JSseeUR71	196	500	0	
091107	10:58	841	UR71 padding	197	6456	pail	
091107	10:58	841	JSUR71	198	3084	10	
091107	10:58	841	JSseeUR25	199	500	0	
091107	10:58	841	UR25 partner	200	3927	pasta	
091107	10:58	841	JSUR25	201	4561	2	
091107	10:58	841	JSseeUR03	202	500	0	
091107	10:58	841	UR03 vehicle	203	3571	grip	
091107	10:58	841	JSUR03	204	3153	2	
091107	10:58	841	JSseeHL28	205	500	0	
091107	10:58	841	HL28 bird	206	3795	bird	
091107	10:58	841	JSHL28	207	7525	1	
091107	10:58	841	JSseeUR100	208	500	0	
091107	10:58	841	UR100 comb	209	3241	code	
091107	10:58	841	JSUR100	210	5169	9	
091107	10:58	841	JSseeUR89	211	500	0	
091107	10:58	841	UR89 crow	212	3154	dear	
091107	10:58	841	JSUR89	213	6220	2	
091107	10:58	841	JSseeUR29	214	500	0	
091107	10:58	841	UR29 patrol	215	3801	pawn	
091107	10:58	841	JSUR29	216	3470	1	
091107	10:58	841	JSseeHL38	217	500	0	
091107	10:58	841	HL38 boat	218	3441	oar	
091107	10:58	841	JSHL38	219	1874	9	
091107	10:58	841	JSseeLH33	220	500	0	
091107	10:58	841	LH33 fable	221	3425	fable	
091107	10:58	841	JSLH33	222	3740	10	
091107	10:58	841	JSseeUR31	223	500	0	
091107	10:58	841	UR31 diameter	224	4186	dial	
091107	10:58	841	JSUR31	225	2930	2	
091107	10:58	841	JSseeHL19	226	500	0	
091107	10:58	841	HL19 car	227	2524	herd	
091107	10:58	841	JSHL19	228	2868	2	
091107	10:58	841	JSseeLH31	229	500	0	
091107	10:58	841	LH31 self	230	2940	trip	
091107	10:58	841	JSLH31	231	7369	1	
091107	10:58	841	JSseeLH13	232	500	0	
091107	10:58	841	LH13 crease	233	3366	seam	
091107	10:58	841	JSLH13	234	6974	8	
091107	10:58	841	JSseeUR37	235	500	0	
091107	10:58	841	UR37 cloth	236	3951	cloud	
091107	10:58	841	JSUR37	237	2971	2	
091107	10:58	841	JSseeHL27	238	500	0	
091107	10:58	841	HL27 rain	239	2237	rain	
091107	10:58	841	JSHL27	240	2092	4	
091107	10:58	841	JSseeUR104	241	500	0	
091107	10:58	841	UR104 aardvark	242	2340	a	
091107	10:58	841	JSUR104	243	3231	1	
091107	10:58	841	JSseeUR38	244	500	0	
091107	10:58	841	UR38 energy	245	2420	enemy	
091107	10:58	841	JSUR38	246	4355	4	
091107	10:58	841	JSseeUR90	247	500	0	
091107	10:58	841	UR90 sailing	248	2818	money	
091107	10:58	841	JSUR90	249	18675	4	
091107	10:58	841	JSseeUR57	250	500	0	
091107	10:58	841	UR57 benefit	251	2942	berry	
091107	10:58	841	JSUR57	252	7475	8	
091107	10:58	841	JSseeUR86	253	500	0	
091107	10:58	841	UR86 boulevard	254	1949		
091107	10:58	841	JSUR86	255	4283	2	
091107	10:58	841	JSseeLH45	256	500	0	
091107	10:58	841	LH45 intellect	257	2757	reason	
091107	10:58	841	JSLH45	258	3353	8	
091107	10:58	841	JSseeLH26	259	500	0	
091107	10:58	841	LH26 center	260	2747	center	
091107	10:58	841	JSLH26	261	4443	9	
091107	10:58	841	JSseeUR12	262	500	0	
091107	10:58	841	UR12 unicorn	263	2480	spoon	
091107	10:58	841	JSUR12	264	1604	9	
091107	10:58	841	JSseeUR108	265	500	0	
091107	10:58	841	UR108 shield	266	2801	choe	
091107	10:58	841	JSUR108	267	3379	3	
091107	10:58	841	JSseeUR99	268	500	0	
091107	10:58	841	UR99 branch	269	3480	oats	
091107	10:58	841	JSUR99	270	2703	7	
091107	10:58	841	JSseeHL29	271	500	0	
091107	10:58	841	HL29 ring	272	2319	ring	
091107	10:58	841	JSHL29	273	4673	4	
091107	10:58	841	JSseeHL26	274	500	0	
091107	10:58	841	HL26 light	275	5652	switch	
091107	10:58	841	JSHL26	276	3960	3	
091107	10:58	841	JSseeLH28	277	500	0	
091107	10:58	841	LH28 vagrant	278	3767	hobo	
091107	10:58	841	JSLH28	279	2408	7	
091107	10:58	841	JSseeHL52	280	500	0	
091107	10:58	841	HL52 sand	281	3082	hill	
091107	10:58	841	JSHL52	282	2917	2	
091107	10:58	841	JSseeHL48	283	500	0	
091107	10:58	841	HL48 airplane	284	3470	airplane	
091107	10:58	841	JSHL48	285	3716	4	
091107	10:58	841	JSseeUR43	286	500	0	
091107	10:58	841	UR43 balloon	287	3180	box	
091107	10:58	841	JSUR43	288	4370	5	
091107	10:58	841	JSseeUR93	289	500	0	
091107	10:58	841	UR93 catcher	290	5083	england	
091107	10:58	841	JSUR93	291	3424	2	
091107	10:58	841	JSseeHL20	292	500	0	
091107	10:58	841	HL20 wine	293	3582	wine	
091107	10:58	841	JSHL20	294	3710	4	
091107	10:58	841	JSseeHL13	295	500	0	
091107	10:58	841	HL13 map	296	3093	map	
091107	10:58	841	JSHL13	297	2432	7	
091107	10:58	841	JSseeHL12	298	500	0	
091107	10:58	841	HL12 space	299	3058	moon	
091107	10:58	841	JSHL12	300	2624	4	
091107	10:58	841	JSseeUR02	301	500	0	
091107	10:58	841	UR02 comma	302	3243	comet	
091107	10:58	841	JSUR02	303	4333	7	
091107	10:58	841	JSseeUR48	304	500	0	
091107	10:58	841	UR48 democracy	305	6427	democracy	
091107	10:58	841	JSUR48	306	3355	7	
091107	10:58	841	JSseeUR08	307	500	0	
091107	10:58	841	UR08 assistant	308	5369	assist	
091107	10:58	841	JSUR08	309	8366	2	
091107	10:58	841	JSseeUR84	310	500	0	
091107	10:58	841	UR84 flag	311	4356	flame	
091107	10:58	841	JSUR84	312	3568	3	
091107	10:58	841	JSseeUR26	313	500	0	
091107	10:58	841	UR26 eternity	314	5873	ethics	
091107	10:58	841	JSUR26	315	4138	10	
091107	10:58	841	JSseeLH52	316	500	0	
091107	10:58	841	LH52 bureau	317	1345		
091107	10:58	841	JSLH52	318	1438	9	
091107	10:58	841	JSseeUR44	319	500	0	
091107	10:58	841	UR44 rot	320	3649	crystal	
091107	10:58	841	JSUR44	321	6024	2	
091107	10:58	841	JSseeUR16	322	500	0	
091107	10:58	841	UR16 century	323	3499	money	
091107	10:58	841	JSUR16	324	3716	8	
