date	time	subject	trialcode	trialnum	latency	response	
091107	13:06	845	JSseePR17	1	500	0	
091107	13:06	845	PR17 emerald	2	14924	color	
091107	13:06	845	JSPR17	3	16304	5	
091107	13:06	845	JSseePR27	4	500	0	
091107	13:06	845	PR27 wheat	5	14132	wheat	
091107	13:06	845	JSPR27	6	17421	10	
091107	13:06	845	JSseePR07	7	500	0	
091107	13:06	845	PR07 bog	8	7683	dog	
091107	13:06	845	JSPR07	9	9945	6	
091107	13:06	845	JSseePR23	10	500	0	
091107	13:06	845	PR23 companion	11	18674	chinese	
091107	13:06	845	JSPR23	12	4776	7	
091107	13:06	845	JSseePR06	13	500	0	
091107	13:06	845	PR06 beast	14	13112	movie	
091107	13:06	845	JSPR06	15	5995	5	
091107	13:06	845	JSseePR09	16	500	0	
091107	13:06	845	PR09 album	17	12537	siren	
091107	13:06	845	JSPR09	18	4945	7	
091107	13:06	845	JSseePR21	19	500	0	
091107	13:06	845	PR21 innocence	20	4018	control	
091107	13:06	845	JSPR21	21	7734	4	
091107	13:06	845	JSseePR01	22	500	0	
091107	13:06	845	PR01 cash	23	4166	nut	
091107	13:06	845	JSPR01	24	5157	5	
091107	13:06	845	JSseePR11	25	500	0	
091107	13:06	845	PR11 ounce	26	7703	freeze	
091107	13:06	845	JSPR11	27	6794	5	
091107	13:06	845	JSseePR25	28	500	0	
091107	13:06	845	PR25 saliva	29	4489	soduim	
091107	13:06	845	JSPR25	30	5470	8	
091107	13:06	845	JSseePR30	31	500	0	
091107	13:06	845	PR30 maiden	32	3364	maiden	
091107	13:06	845	JSPR30	33	10378	5	
091107	13:06	845	JSseePR03	34	500	0	
091107	13:06	845	PR03 acre	35	4397	tree	
091107	13:06	845	JSPR03	36	11348	8	
091107	13:06	845	JSseePR13	37	500	0	
091107	13:06	845	PR13 ambition	38	11537	cyclist	
091107	13:06	845	JSPR13	39	10490	5	
091107	13:06	845	JSseePR04	40	500	0	
091107	13:06	845	PR04 diaper	41	3590	diaper	
091107	13:06	845	JSPR04	42	4253	6	
091107	13:06	845	JSseePR28	43	500	0	
091107	13:06	845	PR28 challenge	44	9322	challenge	
091107	13:06	845	JSPR28	45	6555	5	
091107	13:06	845	JSseeUR42	1	500	0	
091107	13:06	845	UR42 sergeant	2	13814	sergeant	
091107	13:06	845	JSUR42	3	9899	5	
091107	13:06	845	JSseeUR52	4	500	0	
091107	13:06	845	UR52 knight	5	3323	tie	
091107	13:06	845	JSUR52	6	5408	5	
091107	13:06	845	JSseeLH01	7	500	0	
091107	13:06	845	LH01 brain	8	3554	brain	
091107	13:06	845	JSLH01	9	4051	6	
091107	13:06	845	JSseeHL45	10	500	0	
091107	13:06	845	HL45 words	11	5453	word	
091107	13:06	845	JSHL45	12	5047	6	
091107	13:06	845	JSseeLH03	13	500	0	
091107	13:06	845	LH03 yard	14	6752	ball	
091107	13:06	845	JSLH03	15	8574	5	
091107	13:06	845	JSseeHL21	16	500	0	
091107	13:06	845	HL21 empire	17	3301	empire	
091107	13:06	845	JSHL21	18	4765	5	
091107	13:06	845	JSseeLH38	19	500	0	
091107	13:06	845	LH38 paint	20	9299	cold	
091107	13:06	845	JSLH38	21	3135	5	
091107	13:06	845	JSseeLH43	22	500	0	
091107	13:06	845	LH43 noise	23	3459	noise	
091107	13:06	845	JSLH43	24	7304	4	
091107	13:06	845	JSseeLH37	25	500	0	
091107	13:06	845	LH37 pad	26	7623	pill	
091107	13:06	845	JSLH37	27	3052	5	
091107	13:06	845	JSseeHL07	28	500	0	
091107	13:06	845	HL07 king	29	2125	king	
091107	13:06	845	JSHL07	30	4632	5	
091107	13:06	845	JSseeHL39	31	500	0	
091107	13:06	845	HL39 book	32	2457	book	
091107	13:06	845	JSHL39	33	5842	4	
091107	13:06	845	JSseeLH24	34	500	0	
091107	13:06	845	LH24 feeling	35	3437	faith	
091107	13:06	845	JSLH24	36	7652	5	
091107	13:06	845	JSseeHL42	37	500	0	
091107	13:06	845	HL42 pie	38	2677	pie	
091107	13:06	845	JSHL42	39	11693	6	
091107	13:06	845	JSseeUR30	40	500	0	
091107	13:06	845	UR30 lover	41	3940	cancer	
091107	13:06	845	JSUR30	42	14472	4	
091107	13:06	845	JSseeUR95	43	500	0	
091107	13:06	845	UR95 fool	44	6664	predict	
091107	13:06	845	JSUR95	45	7547	6	
091107	13:06	845	JSseeLH20	46	500	0	
091107	13:06	845	LH20 violation	47	2856	girl	
091107	13:06	845	JSLH20	48	16039	4	
091107	13:06	845	JSseeUR96	49	500	0	
091107	13:06	845	UR96 dessert	50	8351	wish	
091107	13:06	845	JSUR96	51	6567	3	
091107	13:06	845	JSseeUR66	52	500	0	
091107	13:06	845	UR66 chief	53	2747	hot	
091107	13:06	845	JSUR66	54	4278	5	
091107	13:06	845	JSseeHL17	55	500	0	
091107	13:06	845	HL17 soap	56	2731	soap	
091107	13:06	845	JSHL17	57	5225	6	
091107	13:06	845	JSseeUR06	58	500	0	
091107	13:06	845	UR06 cello	59	3927	degree	
091107	13:06	845	JSUR06	60	3334	6	
091107	13:06	845	JSseeLH32	61	500	0	
091107	13:06	845	LH32 capacity	62	9389	able	
091107	13:06	845	JSLH32	63	4442	5	
091107	13:06	845	JSseeUR103	64	500	0	
091107	13:06	845	UR103 hula	65	4542	funny	
091107	13:06	845	JSUR103	66	6557	8	
091107	13:06	845	JSseeHL23	67	500	0	
091107	13:06	845	HL23 baby	68	2485	baby	
091107	13:06	845	JSHL23	69	10682	7	
091107	13:06	845	JSseeUR63	70	500	0	
091107	13:06	845	UR63 alley	71	6508	mold	
091107	13:06	845	JSUR63	72	2821	5	
091107	13:06	845	JSseeLH11	73	500	0	
091107	13:06	845	LH11 cancer	74	2954	cancer	
091107	13:06	845	JSLH11	75	6498	5	
091107	13:06	845	JSseeHL03	76	500	0	
091107	13:06	845	HL03 cigarette	77	4353	cigarette	
091107	13:06	845	JSHL03	78	11940	5	
091107	13:06	845	JSseeUR28	79	500	0	
091107	13:06	845	UR28 bang	80	9341	bad	
091107	13:06	845	JSUR28	81	6735	6	
091107	13:06	845	JSseeLH04	82	500	0	
091107	13:06	845	LH04 grade	83	3263	piont	
091107	13:06	845	JSLH04	84	13344	6	
091107	13:06	845	JSseeHL01	85	500	0	
091107	13:06	845	HL01 elephant	86	3098	elephant	
091107	13:06	845	JSHL01	87	9417	4	
091107	13:06	845	JSseeLH27	88	500	0	
091107	13:06	845	LH27 condition	89	2275	crime	
091107	13:06	845	JSLH27	90	9115	3	
091107	13:06	845	JSseeLH51	91	500	0	
091107	13:06	845	LH51 exit	92	2938	plug	
091107	13:06	845	JSLH51	93	4349	6	
091107	13:06	845	JSseeLH07	94	500	0	
091107	13:06	845	LH07 rear	95	4788	rear	
091107	13:06	845	JSLH07	96	7727	5	
091107	13:06	845	JSseeHL41	97	500	0	
091107	13:06	845	HL41 hand	98	2375	hand	
091107	13:06	845	JSHL41	99	15881	1	
091107	13:06	845	JSseeUR50	100	500	0	
091107	13:06	845	UR50 crane	101	7342	amp	
091107	13:06	845	JSUR50	102	12523	6	
091107	13:06	845	JSseeUR76	103	500	0	
091107	13:06	845	UR76 dignity	104	4443	number	
091107	13:06	845	JSUR76	105	4684	5	
091107	13:06	845	JSseeUR69	106	500	0	
091107	13:06	845	UR69 flashlight	107	2443	red	
091107	13:06	845	JSUR69	108	3211	5	
091107	13:06	845	JSseeUR85	109	500	0	
091107	13:06	845	UR85 stroke	110	16334	nub	
091107	13:06	845	JSUR85	111	10353	2	
091107	13:06	845	JSseeHL47	112	500	0	
091107	13:06	845	HL47 horse	113	2564	horse	
091107	13:06	845	JSHL47	114	15043	8	
091107	13:06	845	JSseeHL49	115	500	0	
091107	13:06	845	HL49 spice	116	2884	spice	
091107	13:06	845	JSHL49	117	7073	4	
091107	13:06	845	JSseeUR22	118	500	0	
091107	13:06	845	UR22 thesaurus	119	2752	sex	
091107	13:06	845	JSUR22	120	14837	2	
091107	13:06	845	JSseeLH25	121	500	0	
091107	13:06	845	LH25 track	122	10471	college	
091107	13:06	845	JSLH25	123	10035	7	
091107	13:06	845	JSseeUR82	124	500	0	
091107	13:06	845	UR82 campus	125	5457	campaign	
091107	13:06	845	JSUR82	126	10618	8	
091107	13:06	845	JSseeLH02	127	500	0	
091107	13:06	845	LH02 harm	128	2490	harm	
091107	13:06	845	JSLH02	129	8472	7	
091107	13:06	845	JSseeLH14	130	500	0	
091107	13:06	845	LH14 note	131	5333	clinton	
091107	13:06	845	JSLH14	132	4497	5	
091107	13:06	845	JSseeUR70	133	500	0	
091107	13:06	845	UR70 pajamas	134	2424	wash	
091107	13:06	845	JSUR70	135	5690	5	
091107	13:06	845	JSseeHL31	136	500	0	
091107	13:06	845	HL31 war	137	3136	war	
091107	13:06	845	JSHL31	138	7936	5	
091107	13:06	845	JSseeLH50	139	500	0	
091107	13:06	845	LH50 measure	140	2989	measure	
091107	13:06	845	JSLH50	141	20323	6	
091107	13:06	845	JSseeUR60	142	500	0	
091107	13:06	845	UR60 plaque	143	4740	patio	
091107	13:06	845	JSUR60	144	8006	5	
091107	13:06	845	JSseeUR68	145	500	0	
091107	13:06	845	UR68 fatigue	146	4339	drain	
091107	13:06	845	JSUR68	147	3626	6	
091107	13:06	845	JSseeUR20	148	500	0	
091107	13:06	845	UR20 climax	149	2871	control	
091107	13:06	845	JSUR20	150	7559	8	
091107	13:06	845	JSseeHL09	151	500	0	
091107	13:06	845	HL09 chalk	152	2618	chalk	
091107	13:06	845	JSHL09	153	4492	7	
091107	13:06	845	JSseeLH09	154	500	0	
091107	13:06	845	LH09 piece	155	6108	piece	
091107	13:06	845	JSLH09	156	9230	3	
091107	13:06	845	JSseeUR27	157	500	0	
091107	13:06	845	UR27 consequence	158	10152	truth	
091107	13:06	845	JSUR27	159	8273	3	
091107	13:06	845	JSseeLH30	160	500	0	
091107	13:06	845	LH30 assignment	161	8113	game	
091107	13:06	845	JSLH30	162	7866	5	
091107	13:06	845	JSseeUR67	163	500	0	
091107	13:06	845	UR67 producer	164	22881	profecy	
091107	13:06	845	JSUR67	165	9918	1	
091107	13:06	845	JSseeUR13	166	500	0	
091107	13:06	845	UR13 almanac	167	3305	mammal	
091107	13:06	845	JSUR13	168	9248	8	
091107	13:06	845	JSseeUR107	169	500	0	
091107	13:06	845	UR107 cocaine	170	19333	web	
091107	13:06	845	JSUR107	171	16866	8	
091107	13:06	845	JSseeUR65	172	500	0	
091107	13:06	845	UR65 checkers	173	6902	mouse	
091107	13:06	845	JSUR65	174	10553	8	
091107	13:06	845	JSseeUR59	175	500	0	
091107	13:06	845	UR59 copper	176	11622	remake	
091107	13:06	845	JSUR59	177	23805	10	
091107	13:06	845	JSseeHL53	178	500	0	
091107	13:06	845	HL53 fish	179	2441	fish	
091107	13:06	845	JSHL53	180	7724	8	
091107	13:06	845	JSseeUR47	181	500	0	
091107	13:06	845	UR47 chimpanzee	182	34500	mary poppins	
091107	13:06	845	JSUR47	183	6482	7	
091107	13:06	845	JSseeUR58	184	500	0	
091107	13:06	845	UR58 answer	185	5236	arm	
091107	13:06	845	JSUR58	186	19497	8	
091107	13:06	845	JSseeLH53	187	500	0	
091107	13:06	845	LH53 core	188	19275	definition	
091107	13:06	845	JSLH53	189	5413	5	
091107	13:06	845	JSseeUR105	190	500	0	
091107	13:06	845	UR105 curtain	191	3947	writer	
091107	13:06	845	JSUR105	192	4466	3	
091107	13:06	845	JSseeHL05	193	500	0	
091107	13:06	845	HL05 mountain	194	3116	mountain	
091107	13:06	845	JSHL05	195	6025	4	
091107	13:06	845	JSseeUR64	196	500	0	
091107	13:06	845	UR64 fist	197	3149	cents	
091107	13:06	845	JSUR64	198	10781	1	
091107	13:06	845	JSseeUR32	199	500	0	
091107	13:06	845	UR32 navigator	200	5671	find	
091107	13:06	845	JSUR32	201	8511	2	
091107	13:06	845	JSseeUR04	202	500	0	
091107	13:06	845	UR04 marsh	203	26371	sharade	
091107	13:06	845	JSUR04	204	8883	8	
091107	13:06	845	JSseeHL34	205	500	0	
091107	13:06	845	HL34 hunger	206	2568	hunger	
091107	13:06	845	JSHL34	207	3506	6	
091107	13:06	845	JSseeUR106	208	500	0	
091107	13:06	845	UR106 eagle	209	2669	hear	
091107	13:06	845	JSUR106	210	5835	5	
091107	13:06	845	JSseeUR77	211	500	0	
091107	13:06	845	UR77 uncle	212	4259	uncle	
091107	13:06	845	JSUR77	213	6054	5	
091107	13:06	845	JSseeUR35	214	500	0	
091107	13:06	845	UR35 cause	215	6178	dark	
091107	13:06	845	JSUR35	216	3824	5	
091107	13:06	845	JSseeHL43	217	500	0	
091107	13:06	845	HL43 money	218	2618	money	
091107	13:06	845	JSHL43	219	7932	5	
091107	13:06	845	JSseeLH23	220	500	0	
091107	13:06	845	LH23 possibility	221	5687	possibility	
091107	13:06	845	JSLH23	222	4684	5	
091107	13:06	845	JSseeUR36	223	500	0	
091107	13:06	845	UR36 denim	224	9098	deny	
091107	13:06	845	JSUR36	225	12142	3	
091107	13:06	845	JSseeHL24	226	500	0	
091107	13:06	845	HL24 eye	227	2880	eye	
091107	13:06	845	JSHL24	228	11192	4	
091107	13:06	845	JSseeLH22	229	500	0	
091107	13:06	845	LH22 crowd	230	3488	crowd	
091107	13:06	845	JSLH22	231	8052	6	
091107	13:06	845	JSseeLH05	232	500	0	
091107	13:06	845	LH05 chain	233	3263	james	
091107	13:06	845	JSLH05	234	13519	6	
091107	13:06	845	JSseeUR45	235	500	0	
091107	13:06	845	UR45 bridge	236	7529	marrige	
091107	13:06	845	JSUR45	237	15019	9	
091107	13:06	845	JSseeHL33	238	500	0	
091107	13:06	845	HL33 joke	239	3418	joke	
091107	13:06	845	JSHL33	240	4725	5	
091107	13:06	845	JSseeUR14	241	500	0	
091107	13:06	845	UR14 fudge	242	3820	free	
091107	13:06	845	JSUR14	243	13171	2	
091107	13:06	845	JSseeUR46	244	500	0	
091107	13:06	845	UR46 content	245	2533	water	
091107	13:06	845	JSUR46	246	4014	5	
091107	13:06	845	JSseeUR78	247	500	0	
091107	13:06	845	UR78 blender	248	13489	california	
091107	13:06	845	JSUR78	249	5150	6	
091107	13:06	845	JSseeUR62	250	500	0	
091107	13:06	845	UR62 chemistry	251	6389	chemistry	
091107	13:06	845	JSUR62	252	9314	5	
091107	13:06	845	JSseeUR75	253	500	0	
091107	13:06	845	UR75 awe	254	3385	murder	
091107	13:06	845	JSUR75	255	4922	1	
091107	13:06	845	JSseeLH46	256	500	0	
091107	13:06	845	LH46 submarine	257	5182	submarine	
091107	13:06	845	JSLH46	258	12394	1	
091107	13:06	845	JSseeLH17	259	500	0	
091107	13:06	845	LH17 life	260	2109	life	
091107	13:06	845	JSLH17	261	6296	5	
091107	13:06	845	JSseeUR21	262	500	0	
091107	13:06	845	UR21 ore	263	4337	tree	
091107	13:06	845	JSUR21	264	6002	6	
091107	13:06	845	JSseeUR17	265	500	0	
091107	13:06	845	UR17 trance	266	3237	pirate	
091107	13:06	845	JSUR17	267	5228	5	
091107	13:06	845	JSseeUR98	268	500	0	
091107	13:06	845	UR98 latch	269	3511	volcano	
091107	13:06	845	JSUR98	270	9978	4	
091107	13:06	845	JSseeHL36	271	500	0	
091107	13:06	845	HL36 football	272	6713	football	
091107	13:06	845	JSHL36	273	6710	1	
091107	13:06	845	JSseeHL32	274	500	0	
091107	13:06	845	HL32 television	275	3657	center	
091107	13:06	845	JSHL32	276	11294	1	
091107	13:06	845	JSseeLH19	277	500	0	
091107	13:06	845	LH19 snob	278	3834	snob	
091107	13:06	845	JSLH19	279	11666	8	
091107	13:06	845	JSseeHL51	280	500	0	
091107	13:06	845	HL51 color	281	3902	color	
091107	13:06	845	JSHL51	282	7837	7	
091107	13:06	845	JSseeHL50	283	500	0	
091107	13:06	845	HL50 doctor	284	2336	beat	
091107	13:06	845	JSHL50	285	7714	8	
091107	13:06	845	JSseeUR53	286	500	0	
091107	13:06	845	UR53 hell	287	10692	needle	
091107	13:06	845	JSUR53	288	3865	5	
091107	13:06	845	JSseeUR87	289	500	0	
091107	13:06	845	UR87 duty	290	4531	sleigh	
091107	13:06	845	JSUR87	291	8417	1	
091107	13:06	845	JSseeHL25	292	500	0	
091107	13:06	845	HL25 cut	293	1982	cut	
091107	13:06	845	JSHL25	294	11577	5	
091107	13:06	845	JSseeHL14	295	500	0	
091107	13:06	845	HL14 milk	296	2042	milk	
091107	13:06	845	JSHL14	297	5126	6	
091107	13:06	845	JSseeHL10	298	500	0	
091107	13:06	845	HL10 cow	299	1719	cow	
091107	13:06	845	JSHL10	300	6026	4	
091107	13:06	845	JSseeUR01	301	500	0	
091107	13:06	845	UR01 file	302	3027	clip	
091107	13:06	845	JSUR01	303	3707	5	
091107	13:06	845	JSseeUR55	304	500	0	
091107	13:06	845	UR55 bargain	305	2691	camp	
091107	13:06	845	JSUR55	306	4156	6	
091107	13:06	845	JSseeUR07	307	500	0	
091107	13:06	845	UR07 gathering	308	8292	hemorage	
091107	13:06	845	JSUR07	309	6980	7	
091107	13:06	845	JSseeUR74	310	500	0	
091107	13:06	845	UR74 suitcase	311	3403	set	
091107	13:06	845	JSUR74	312	20515	10	
091107	13:06	845	JSseeUR34	313	500	0	
091107	13:06	845	UR34 charity	314	7982	table	
091107	13:06	845	JSUR34	315	7028	5	
091107	13:06	845	JSseeLH54	316	500	0	
091107	13:06	845	LH54 limit	317	5006	height	
091107	13:06	845	JSLH54	318	7863	3	
091107	13:06	845	JSseeUR54	319	500	0	
091107	13:06	845	UR54 steam	320	3979	system	
091107	13:06	845	JSUR54	321	6550	3	
091107	13:06	845	JSseeUR24	322	500	0	
091107	13:06	845	UR24 kid	323	4260	sister	
091107	13:06	845	JSUR24	324	5947	8	
091107	13:06	845	JAseePR26	1	500	0	
091107	13:06	845	PR26 colonel	2	23495	smell	
091107	13:06	845	JAPR26	3	24214	2	
091107	13:06	845	JAseePR24	4	500	0	
091107	13:06	845	PR24 pest	5	14577	move	
091107	13:06	845	JAPR24	6	13539	7	
091107	13:06	845	JAseePR08	7	500	0	
091107	13:06	845	PR08 beef	8	2564	honey	
091107	13:06	845	JAPR08	9	11767	8	
091107	13:06	845	JAseePR05	10	500	0	
091107	13:06	845	PR05 calf	11	8219	half	
091107	13:06	845	JAPR05	12	8080	5	
091107	13:06	845	JAseePR14	13	500	0	
091107	13:06	845	PR14 religion	14	4722	sign	
091107	13:06	845	JAPR14	15	6157	4	
091107	13:06	845	JAseePR19	16	500	0	
091107	13:06	845	PR19 void	17	10006	under	
091107	13:06	845	JAPR19	18	5070	7	
091107	13:06	845	JAseePR12	19	500	0	
091107	13:06	845	PR12 royalty	20	5819	royalty	
091107	13:06	845	JAPR12	21	5073	5	
091107	13:06	845	JAseePR02	22	500	0	
091107	13:06	845	PR02 wrinkle	23	5796	week	
091107	13:06	845	JAPR02	24	16384	10	
091107	13:06	845	JAseePR10	25	500	0	
091107	13:06	845	PR10 camel	26	8391	picture	
091107	13:06	845	JAPR10	27	6732	4	
091107	13:06	845	JAseePR15	28	500	0	
091107	13:06	845	PR15 depletion	29	15383	i blinked	
091107	13:06	845	JAPR15	30	11147	2	
091107	13:06	845	JAseePR20	31	500	0	
091107	13:06	845	PR20 advertisement	32	7305	conversation	
091107	13:06	845	JAPR20	33	16088	3	
091107	13:06	845	JAseePR29	34	500	0	
091107	13:06	845	PR29 mermaid	35	2499	comet	
091107	13:06	845	JAPR29	36	14548	3	
091107	13:06	845	JAseePR16	37	500	0	
091107	13:06	845	PR16 compulsion	38	3811	pray	
091107	13:06	845	JAPR16	39	5128	1	
091107	13:06	845	JAseePR22	40	500	0	
091107	13:06	845	PR22 ass	41	7550	road	
091107	13:06	845	JAPR22	42	4314	2	
091107	13:06	845	JAseeUR43	1	500	0	
091107	13:06	845	UR43 balloon	2	6488	vote	
091107	13:06	845	JAUR43	3	13186	5	
091107	13:06	845	JAseeUR102	4	500	0	
091107	13:06	845	UR102 velocity	5	4342	celebrity	
091107	13:06	845	JAUR102	6	18155	3	
091107	13:06	845	JAseeHL08	7	500	0	
091107	13:06	845	HL08 math	8	2185	math	
091107	13:06	845	JAHL08	9	7661	4	
091107	13:06	845	JAseeLH13	10	500	0	
091107	13:06	845	LH13 crease	11	11166	crease	
091107	13:06	845	JALH13	12	9515	5	
091107	13:06	845	JAseeLH08	13	500	0	
091107	13:06	845	LH08 house	14	2062	house	
091107	13:06	845	JALH08	15	7785	7	
091107	13:06	845	JAseeUR71	16	500	0	
091107	13:06	845	UR71 padding	17	6625	paddle	
091107	13:06	845	JAUR71	18	8694	6	
091107	13:06	845	JAseeUR25	19	500	0	
091107	13:06	845	UR25 partner	20	3531	green	
091107	13:06	845	JAUR25	21	5966	3	
091107	13:06	845	JAseeLH47	22	500	0	
091107	13:06	845	LH47 detergent	23	4244	detergent	
091107	13:06	845	JALH47	24	32835	4	
091107	13:06	845	JAseeLH36	25	500	0	
091107	13:06	845	LH36 gang	26	5106	orange	
091107	13:06	845	JALH36	27	6037	5	
091107	13:06	845	JAseeHL15	28	500	0	
091107	13:06	845	HL15 bomb	29	3607	bomb	
091107	13:06	845	JAHL15	30	4786	5	
091107	13:06	845	JAseeUR84	31	500	0	
091107	13:06	845	UR84 flag	32	2649	burn	
091107	13:06	845	JAUR84	33	10270	3	
091107	13:06	845	JAseeHL29	34	500	0	
091107	13:06	845	HL29 ring	35	1879	ring	
091107	13:06	845	JAHL29	36	2836	8	
091107	13:06	845	JAseeLH29	37	500	0	
091107	13:06	845	LH29 closet	38	5625	clean	
091107	13:06	845	JALH29	39	10352	7	
091107	13:06	845	JAseeLH52	40	500	0	
091107	13:06	845	LH52 bureau	41	13504	bureau	
091107	13:06	845	JALH52	42	4542	6	
091107	13:06	845	JAseeLH48	43	500	0	
091107	13:06	845	LH48 outcome	44	3588	outcome	
091107	13:06	845	JALH48	45	5962	3	
091107	13:06	845	JAseeUR29	46	500	0	
091107	13:06	845	UR29 patrol	47	6657	chess	
091107	13:06	845	JAUR29	48	10155	1	
091107	13:06	845	JAseeLH28	49	500	0	
091107	13:06	845	LH28 vagrant	50	2896	bum	
091107	13:06	845	JALH28	51	10331	5	
091107	13:06	845	JAseeHL52	52	500	0	
091107	13:06	845	HL52 sand	53	2149	sand	
091107	13:06	845	JAHL52	54	13286	3	
091107	13:06	845	JAseeHL44	55	500	0	
091107	13:06	845	HL44 baseball	56	3193	baseball	
091107	13:06	845	JAHL44	57	4277	4	
091107	13:06	845	JAseeUR37	58	500	0	
091107	13:06	845	UR37 cloth	59	2385	cloth	
091107	13:06	845	JAUR37	60	5788	1	
091107	13:06	845	JAseeUR81	61	500	0	
091107	13:06	845	UR81 acid	62	3352	goal	
091107	13:06	845	JAUR81	63	3082	2	
091107	13:06	845	JAseeUR88	64	500	0	
091107	13:06	845	UR88 circus	65	13803	circus	
091107	13:06	845	JAUR88	66	10016	4	
091107	13:06	845	JAseeLH34	67	500	0	
091107	13:06	845	LH34 panel	68	2399	panel	
091107	13:06	845	JALH34	69	4810	7	
091107	13:06	845	JAseeHL54	70	500	0	
091107	13:06	845	HL54 indian	71	2458	indian	
091107	13:06	845	JAHL54	72	8591	3	
091107	13:06	845	JAseeUR48	73	500	0	
091107	13:06	845	UR48 democracy	74	4154	democracy	
091107	13:06	845	JAUR48	75	5438	6	
091107	13:06	845	JAseeUR40	76	500	0	
091107	13:06	845	UR40 dancer	77	8876	shampoo	
091107	13:06	845	JAUR40	78	8343	8	
091107	13:06	845	JAseeHL38	79	500	0	
091107	13:06	845	HL38 boat	80	1885	boat	
091107	13:06	845	JAHL38	81	5204	6	
091107	13:06	845	JAseeLH18	82	500	0	
091107	13:06	845	LH18 edge	83	2342	edge	
091107	13:06	845	JALH18	84	5203	7	
091107	13:06	845	JAseeUR89	85	500	0	
091107	13:06	845	UR89 crow	86	7469	road	
091107	13:06	845	JAUR89	87	7252	3	
091107	13:06	845	JAseeUR18	88	500	0	
091107	13:06	845	UR18 relief	89	4329	believe	
091107	13:06	845	JAUR18	90	11236	4	
091107	13:06	845	JAseeUR80	91	500	0	
091107	13:06	845	UR80 antique	92	10375	medicine	
091107	13:06	845	JAUR80	93	8077	5	
091107	13:06	845	JAseeUR15	94	500	0	
091107	13:06	845	UR15 compass	95	4686	love	
091107	13:06	845	JAUR15	96	3207	6	
091107	13:06	845	JAseeUR08	97	500	0	
091107	13:06	845	UR08 assistant	98	3291	ramp	
091107	13:06	845	JAUR08	99	8846	2	
091107	13:06	845	JAseeUR94	100	500	0	
091107	13:06	845	UR94 bristle	101	4302	bag	
091107	13:06	845	JAUR94	102	9610	1	
091107	13:06	845	JAseeUR61	103	500	0	
091107	13:06	845	UR61 suicide	104	7911	slope	
091107	13:06	845	JAUR61	105	6728	2	
091107	13:06	845	JAseeUR05	106	500	0	
091107	13:06	845	UR05 lease	107	9142	apartment	
091107	13:06	845	JAUR05	108	5071	2	
091107	13:06	845	JAseeHL28	109	500	0	
091107	13:06	845	HL28 bird	110	1872	bird	
091107	13:06	845	JAHL28	111	4937	1	
091107	13:06	845	JAseeUR73	112	500	0	
091107	13:06	845	UR73 kite	113	7151	sneeze	
091107	13:06	845	JAUR73	114	8013	4	
091107	13:06	845	JAseeUR79	115	500	0	
091107	13:06	845	UR79 beetle	116	15514	vegetables	
091107	13:06	845	JAUR79	117	6325	2	
091107	13:06	845	JAseeUR31	118	500	0	
091107	13:06	845	UR31 diameter	119	3810	alarm	
091107	13:06	845	JAUR31	120	9967	3	
091107	13:06	845	JAseeUR26	121	500	0	
091107	13:06	845	UR26 eternity	122	4196	eternity	
091107	13:06	845	JAUR26	123	4693	4	
091107	13:06	845	JAseeLH21	124	500	0	
091107	13:06	845	LH21 monument	125	3745	monument	
091107	13:06	845	JALH21	126	4822	3	
091107	13:06	845	JAseeHL48	127	500	0	
091107	13:06	845	HL48 airplane	128	7525	airplane	
091107	13:06	845	JAHL48	129	9463	4	
091107	13:06	845	JAseeLH10	130	500	0	
091107	13:06	845	LH10 care	131	6476	careful	
091107	13:06	845	JALH10	132	13894	7	
091107	13:06	845	JAseeLH31	133	500	0	
091107	13:06	845	LH31 self	134	2607	self	
091107	13:06	845	JALH31	135	5178	3	
091107	13:06	845	JAseeUR38	136	500	0	
091107	13:06	845	UR38 energy	137	3572	war	
091107	13:06	845	JAUR38	138	3101	2	
091107	13:06	845	JAseeUR86	139	500	0	
091107	13:06	845	UR86 boulevard	140	5821	build	
091107	13:06	845	JAUR86	141	6274	1	
091107	13:06	845	JAseeUR90	142	500	0	
091107	13:06	845	UR90 sailing	143	2341	sale	
091107	13:06	845	JAUR90	144	5466	2	
091107	13:06	845	JAseeHL30	145	500	0	
091107	13:06	845	HL30 air	146	4010	control	
091107	13:06	845	JAHL30	147	8857	3	
091107	13:06	845	JAseeUR57	148	500	0	
091107	13:06	845	UR57 benefit	149	8522	fruit	
091107	13:06	845	JAUR57	150	20553	5	
091107	13:06	845	JAseeLH12	151	500	0	
091107	13:06	845	LH12 addition	152	8853	addition	
091107	13:06	845	JALH12	153	8324	7	
091107	13:06	845	JAseeHL04	154	500	0	
091107	13:06	845	HL04 beer	155	6398	beer	
091107	13:06	845	JAHL04	156	11542	5	
091107	13:06	845	JAseeUR11	157	500	0	
091107	13:06	845	UR11 foundation	158	5450	foundation	
091107	13:06	845	JAUR11	159	8982	4	
091107	13:06	845	JAseeLH33	160	500	0	
091107	13:06	845	LH33 fable	161	12835	map	
091107	13:06	845	JALH33	162	5091	5	
091107	13:06	845	JAseeHL11	163	500	0	
091107	13:06	845	HL11 rock	164	2179	rock	
091107	13:06	845	JAHL11	165	4017	7	
091107	13:06	845	JAseeLH06	166	500	0	
091107	13:06	845	LH06 element	167	5812	element	
091107	13:06	845	JALH06	168	3746	4	
091107	13:06	845	JAseeHL37	169	500	0	
091107	13:06	845	HL37 thread	170	2352	thread	
091107	13:06	845	JAHL37	171	5112	4	
091107	13:06	845	JAseeLH44	172	500	0	
091107	13:06	845	LH44 vessel	173	3352	vessel	
091107	13:06	845	JALH44	174	3994	5	
091107	13:06	845	JAseeLH39	175	500	0	
091107	13:06	845	LH39 reward	176	4670	reward	
091107	13:06	845	JALH39	177	3815	1	
091107	13:06	845	JAseeLH49	178	500	0	
091107	13:06	845	LH49 kindness	179	4592	kindness	
091107	13:06	845	JALH49	180	3419	7	
091107	13:06	845	JAseeUR39	181	500	0	
091107	13:06	845	UR39 faith	182	11644	free	
091107	13:06	845	JAUR39	183	6302	6	
091107	13:06	845	JAseeUR33	184	500	0	
091107	13:06	845	UR33 horror	185	2952	horror	
091107	13:06	845	JAUR33	186	3179	3	
091107	13:06	845	JAseeUR02	187	500	0	
091107	13:06	845	UR02 comma	188	13422	asteroid	
091107	13:06	845	JAUR02	189	4326	5	
091107	13:06	845	JAseeUR93	190	500	0	
091107	13:06	845	UR93 catcher	191	3851	catcher	
091107	13:06	845	JAUR93	192	24615	7	
091107	13:06	845	JAseeHL19	193	500	0	
091107	13:06	845	HL19 car	194	2021	car	
091107	13:06	845	JAHL19	195	4076	1	
091107	13:06	845	JAseeUR49	196	500	0	
091107	13:06	845	UR49 casket	197	2491	cash	
091107	13:06	845	JAUR49	198	5894	4	
091107	13:06	845	JAseeHL35	199	500	0	
091107	13:06	845	HL35 cake	200	1602	cake	
091107	13:06	845	JAHL35	201	4070	5	
091107	13:06	845	JAseeUR44	202	500	0	
091107	13:06	845	UR44 rot	203	2927	carrot	
091107	13:06	845	JAUR44	204	3626	2	
091107	13:06	845	JAseeUR91	205	500	0	
091107	13:06	845	UR91 anteater	206	5141	animal	
091107	13:06	845	JAUR91	207	5560	3	
091107	13:06	845	JAseeHL46	208	500	0	
091107	13:06	845	HL46 butter	209	2038	butter	
091107	13:06	845	JAHL46	210	9130	5	
091107	13:06	845	JAseeUR09	211	500	0	
091107	13:06	845	UR09 education	212	2391	novel	
091107	13:06	845	JAUR09	213	4334	3	
091107	13:06	845	JAseeUR83	214	500	0	
091107	13:06	845	UR83 lesson	215	4363	lesson	
091107	13:06	845	JAUR83	216	11427	2	
091107	13:06	845	JAseeHL18	217	500	0	
091107	13:06	845	HL18 paper	218	4066	paper	
091107	13:06	845	JAHL18	219	9856	7	
091107	13:06	845	JAseeLH16	220	500	0	
091107	13:06	845	LH16 power	221	4354	power	
091107	13:06	845	JALH16	222	5171	3	
091107	13:06	845	JAseeHL06	223	500	0	
091107	13:06	845	HL06 egg	224	7779	sled	
091107	13:06	845	JAHL06	225	4844	5	
091107	13:06	845	JAseeHL20	226	500	0	
091107	13:06	845	HL20 wine	227	1900	wine	
091107	13:06	845	JAHL20	228	3821	8	
091107	13:06	845	JAseeHL26	229	500	0	
091107	13:06	845	HL26 light	230	10515	off	
091107	13:06	845	JAHL26	231	11086	2	
091107	13:06	845	JAseeLH42	232	500	0	
091107	13:06	845	LH42 thought	233	2095	thought	
091107	13:06	845	JALH42	234	2755	1	
091107	13:06	845	JAseeUR41	235	500	0	
091107	13:06	845	UR41 chime	236	8084	temperature	
091107	13:06	845	JAUR41	237	3440	3	
091107	13:06	845	JAseePR18	238	500	0	
091107	13:06	845	PR18 clorox	239	3359	control	
091107	13:06	845	JAPR18	240	2668	1	
091107	13:06	845	JAseeLH35	241	500	0	
091107	13:06	845	LH35 shelter	242	2813	shelter	
091107	13:06	845	JALH35	243	6473	7	
091107	13:06	845	JAseeUR16	244	500	0	
091107	13:06	845	UR16 century	245	3568	century	
091107	13:06	845	JAUR16	246	15648	5	
091107	13:06	845	JAseeUR108	247	500	0	
091107	13:06	845	UR108 shield	248	4630	shield	
091107	13:06	845	JAUR108	249	6311	7	
091107	13:06	845	JAseeHL12	250	500	0	
091107	13:06	845	HL12 space	251	2455	space	
091107	13:06	845	JAHL12	252	6804	6	
091107	13:06	845	JAseeUR23	253	500	0	
091107	13:06	845	UR23 abundance	254	9063	present	
091107	13:06	845	JAUR23	255	6889	5	
091107	13:06	845	JAseeUR104	256	500	0	
091107	13:06	845	UR104 aardvark	257	4439	letter	
091107	13:06	845	JAUR104	258	9907	4	
091107	13:06	845	JAseeUR56	259	500	0	
091107	13:06	845	UR56 antler	260	32428	happy	
091107	13:06	845	JAUR56	261	6008	1	
091107	13:06	845	JAseeHL16	262	500	0	
091107	13:06	845	HL16 broom	263	2900	broom	
091107	13:06	845	JAHL16	264	3001	6	
091107	13:06	845	JAseeHL40	265	500	0	
091107	13:06	845	HL40 temperature	266	3893	temperature	
091107	13:06	845	JAHL40	267	4873	2	
091107	13:06	845	JAseeUR101	268	500	0	
091107	13:06	845	UR101 beard	269	2309	bead	
091107	13:06	845	JAUR101	270	4069	1	
091107	13:06	845	JAseeLH45	271	500	0	
091107	13:06	845	LH45 intellect	272	4735	intelligence	
091107	13:06	845	JALH45	273	8781	2	
091107	13:06	845	JAseeUR92	274	500	0	
091107	13:06	845	UR92 dart	275	3982	water	
091107	13:06	845	JAUR92	276	5732	2	
091107	13:06	845	JAseeUR19	277	500	0	
091107	13:06	845	UR19 bison	278	3771	knight	
091107	13:06	845	JAUR19	279	5412	4	
091107	13:06	845	JAseeUR99	280	500	0	
091107	13:06	845	UR99 branch	281	4450	oat	
091107	13:06	845	JAUR99	282	12160	8	
091107	13:06	845	JAseeUR10	283	500	0	
091107	13:06	845	UR10 tribe	284	2927	dance	
091107	13:06	845	JAUR10	285	4889	2	
091107	13:06	845	JAseeUR72	286	500	0	
091107	13:06	845	UR72 band	287	8003	band	
091107	13:06	845	JAUR72	288	13961	3	
091107	13:06	845	JAseeUR100	289	500	0	
091107	13:06	845	UR100 comb	290	2205	safe	
091107	13:06	845	JAUR100	291	6412	4	
091107	13:06	845	JAseeLH26	292	500	0	
091107	13:06	845	LH26 center	293	6604	center	
091107	13:06	845	JALH26	294	4682	4	
091107	13:06	845	JAseeUR03	295	500	0	
091107	13:06	845	UR03 vehicle	296	9379	pliers	
091107	13:06	845	JAUR03	297	4750	5	
091107	13:06	845	JAseeHL22	298	500	0	
091107	13:06	845	HL22 problem	299	3426	problem	
091107	13:06	845	JAHL22	300	4622	3	
091107	13:06	845	JAseeLH15	301	500	0	
091107	13:06	845	LH15 blessing	302	3124	blessing	
091107	13:06	845	JALH15	303	4675	5	
091107	13:06	845	JAseeHL27	304	500	0	
091107	13:06	845	HL27 rain	305	1696	rain	
091107	13:06	845	JAHL27	306	3356	6	
091107	13:06	845	JAseeHL02	307	500	0	
091107	13:06	845	HL02 flower	308	5019	flower	
091107	13:06	845	JAHL02	309	4220	5	
091107	13:06	845	JAseeLH41	310	500	0	
091107	13:06	845	LH41 girl	311	2748	girl	
091107	13:06	845	JALH41	312	9972	2	
091107	13:06	845	JAseeHL13	313	500	0	
091107	13:06	845	HL13 map	314	10347	map	
091107	13:06	845	JAHL13	315	3098	7	
091107	13:06	845	JAseeUR97	316	500	0	
091107	13:06	845	UR97 banner	317	2544	ball	
091107	13:06	845	JAUR97	318	3102	4	
091107	13:06	845	JAseeLH40	319	500	0	
091107	13:06	845	LH40 field	320	3321	field	
091107	13:06	845	JALH40	321	2991	3	
091107	13:06	845	JAseeUR51	322	500	0	
091107	13:06	845	UR51 cabbage	323	5937	cabbage	
091107	13:06	845	JAUR51	324	5908	2	
091107	13:06	845	JAseeUR12	325	500	0	
091107	13:06	845	UR12 unicorn	326	7732	silverware	
091107	13:06	845	JAUR12	327	13079	5	
