date	time	subject	trialcode	trialnum	latency	response	
091107	13:05	847	JAseePR17	1	500	0	
091107	13:05	847	PR17 emerald	2	14423	djskfh	
091107	13:05	847	JAPR17	3	32165	2	
091107	13:05	847	JAseePR27	4	500	0	
091107	13:05	847	PR27 wheat	5	7508	husband	
091107	13:05	847	JAPR27	6	21510	6	
091107	13:05	847	JAseePR07	7	500	0	
091107	13:05	847	PR07 bog	8	8400	dog	
091107	13:05	847	JAPR07	9	5711	3	
091107	13:05	847	JAseePR23	10	500	0	
091107	13:05	847	PR23 companion	11	4962	control	
091107	13:05	847	JAPR23	12	5134	7	
091107	13:05	847	JAseePR06	13	500	0	
091107	13:05	847	PR06 beast	14	6743	beast	
091107	13:05	847	JAPR06	15	1914	9	
091107	13:05	847	JAseePR09	16	500	0	
091107	13:05	847	PR09 album	17	6603	alarm	
091107	13:05	847	JAPR09	18	2139	2	
091107	13:05	847	JAseePR21	19	500	0	
091107	13:05	847	PR21 innocence	20	12309	control	
091107	13:05	847	JAPR21	21	3749	5	
091107	13:05	847	JAseePR01	22	500	0	
091107	13:05	847	PR01 cash	23	3375	cash	
091107	13:05	847	JAPR01	24	3182	3	
091107	13:05	847	JAseePR11	25	500	0	
091107	13:05	847	PR11 ounce	26	4050	ounce	
091107	13:05	847	JAPR11	27	4334	4	
091107	13:05	847	JAseePR25	28	500	0	
091107	13:05	847	PR25 saliva	29	6305	saliva	
091107	13:05	847	JAPR25	30	5624	3	
091107	13:05	847	JAseePR30	31	500	0	
091107	13:05	847	PR30 maiden	32	5104	maiden	
091107	13:05	847	JAPR30	33	3630	3	
091107	13:05	847	JAseePR03	34	500	0	
091107	13:05	847	PR03 acre	35	5196	accrue	
091107	13:05	847	JAPR03	36	4907	5	
091107	13:05	847	JAseePR13	37	500	0	
091107	13:05	847	PR13 ambition	38	3687	ambition	
091107	13:05	847	JAPR13	39	4190	6	
091107	13:05	847	JAseePR04	40	500	0	
091107	13:05	847	PR04 diaper	41	3842	diaper	
091107	13:05	847	JAPR04	42	5577	4	
091107	13:05	847	JAseeUR53	1	500	0	
091107	13:05	847	UR53 hell	2	3477	hello	
091107	13:05	847	JAUR53	3	5171	5	
091107	13:05	847	JAseeUR13	4	500	0	
091107	13:05	847	UR13 almanac	5	3337	almanac	
091107	13:05	847	JAUR13	6	4600	7	
091107	13:05	847	JAseeHL07	7	500	0	
091107	13:05	847	HL07 king	8	1921	king	
091107	13:05	847	JAHL07	9	5041	5	
091107	13:05	847	JAseeLH05	10	500	0	
091107	13:05	847	LH05 chain	11	1872	chair	
091107	13:05	847	JALH05	12	4438	8	
091107	13:05	847	JAseeLH02	13	500	0	
091107	13:05	847	LH02 harm	14	1635	harm	
091107	13:05	847	JALH02	15	3588	7	
091107	13:05	847	JAseeUR64	16	500	0	
091107	13:05	847	UR64 fist	17	2218	fist	
091107	13:05	847	JAUR64	18	2865	2	
091107	13:05	847	JAseeUR32	19	500	0	
091107	13:05	847	UR32 navigator	20	3113	navigate	
091107	13:05	847	JAUR32	21	2276	7	
091107	13:05	847	JAseeLH50	22	500	0	
091107	13:05	847	LH50 measure	23	3139	measure	
091107	13:05	847	JALH50	24	3009	4	
091107	13:05	847	JAseeLH27	25	500	0	
091107	13:05	847	LH27 condition	26	3399	condition	
091107	13:05	847	JALH27	27	4088	3	
091107	13:05	847	JAseeHL17	28	500	0	
091107	13:05	847	HL17 soap	29	2198	soap	
091107	13:05	847	JAHL17	30	4604	5	
091107	13:05	847	JAseeUR74	31	500	0	
091107	13:05	847	UR74 suitcase	32	3091	suitcase	
091107	13:05	847	JAUR74	33	3251	2	
091107	13:05	847	JAseeHL36	34	500	0	
091107	13:05	847	HL36 football	35	2519	football	
091107	13:05	847	JAHL36	36	3205	3	
091107	13:05	847	JAseeLH20	37	500	0	
091107	13:05	847	LH20 violation	38	4407	violation	
091107	13:05	847	JALH20	39	4081	8	
091107	13:05	847	JAseeLH54	40	500	0	
091107	13:05	847	LH54 limit	41	2238	limit	
091107	13:05	847	JALH54	42	51217	7	
091107	13:05	847	JAseeLH51	43	500	0	
091107	13:05	847	LH51 exit	44	3810	exit	
091107	13:05	847	JALH51	45	7647	3	
091107	13:05	847	JAseeUR35	46	500	0	
091107	13:05	847	UR35 cause	47	3300	cause	
091107	13:05	847	JAUR35	48	3691	4	
091107	13:05	847	JAseeLH19	49	500	0	
091107	13:05	847	LH19 snob	50	5681	snob	
091107	13:05	847	JALH19	51	4321	7	
091107	13:05	847	JAseeHL51	52	500	0	
091107	13:05	847	HL51 color	53	1965	color	
091107	13:05	847	JAHL51	54	9879	5	
091107	13:05	847	JAseeHL47	55	500	0	
091107	13:05	847	HL47 horse	56	2055	horse	
091107	13:05	847	JAHL47	57	1224	8	
091107	13:05	847	JAseeUR45	58	500	0	
091107	13:05	847	UR45 bridge	59	2433	bridge	
091107	13:05	847	JAUR45	60	6932	1	
091107	13:05	847	JAseeUR69	61	500	0	
091107	13:05	847	UR69 flashlight	62	3035	flashlight	
091107	13:05	847	JAUR69	63	3714	6	
091107	13:05	847	JAseeUR76	64	500	0	
091107	13:05	847	UR76 dignity	65	3805	dignity	
091107	13:05	847	JAUR76	66	4125	7	
091107	13:05	847	JAseeLH24	67	500	0	
091107	13:05	847	LH24 feeling	68	6789	feeling	
091107	13:05	847	JALH24	69	3193	4	
091107	13:05	847	JAseeHL53	70	500	0	
091107	13:05	847	HL53 fish	71	3365	fish	
091107	13:05	847	JAHL53	72	2872	9	
091107	13:05	847	JAseeUR55	73	500	0	
091107	13:05	847	UR55 bargain	74	2630	bargain	
091107	13:05	847	JAUR55	75	3560	8	
091107	13:05	847	JAseeUR50	76	500	0	
091107	13:05	847	UR50 crane	77	3080	crane	
091107	13:05	847	JAUR50	78	3465	6	
091107	13:05	847	JAseeHL43	79	500	0	
091107	13:05	847	HL43 money	80	2049	money	
091107	13:05	847	JAHL43	81	4382	5	
091107	13:05	847	JAseeLH11	82	500	0	
091107	13:05	847	LH11 cancer	83	2019	cancer	
091107	13:05	847	JALH11	84	3264	6	
091107	13:05	847	JAseeUR77	85	500	0	
091107	13:05	847	UR77 uncle	86	1951	uncle	
091107	13:05	847	JAUR77	87	3921	4	
091107	13:05	847	JAseeUR27	88	500	0	
091107	13:05	847	UR27 consequence	89	6108	consequence	
091107	13:05	847	JAUR27	90	3172	3	
091107	13:05	847	JAseeUR68	91	500	0	
091107	13:05	847	UR68 fatigue	92	6656	wheel	
091107	13:05	847	JAUR68	93	4368	4	
091107	13:05	847	JAseeUR22	94	500	0	
091107	13:05	847	UR22 thesaurus	95	12615	these	
091107	13:05	847	JAUR22	96	4242	2	
091107	13:05	847	JAseeUR07	97	500	0	
091107	13:05	847	UR07 gathering	98	3960	gather	
091107	13:05	847	JAUR07	99	2280	7	
091107	13:05	847	JAseeUR95	100	500	0	
091107	13:05	847	UR95 fool	101	2978	fool	
091107	13:05	847	JAUR95	102	4386	8	
091107	13:05	847	JAseeUR63	103	500	0	
091107	13:05	847	UR63 alley	104	5366	allergy	
091107	13:05	847	JAUR63	105	8268	9	
091107	13:05	847	JAseeUR06	106	500	0	
091107	13:05	847	UR06 cello	107	3271	cello	
091107	13:05	847	JAUR06	108	3230	7	
091107	13:05	847	JAseeHL34	109	500	0	
091107	13:05	847	HL34 hunger	110	2726	hunger	
091107	13:05	847	JAHL34	111	2659	5	
091107	13:05	847	JAseeUR66	112	500	0	
091107	13:05	847	UR66 chief	113	3875	chief	
091107	13:05	847	JAUR66	114	4172	7	
091107	13:05	847	JAseeUR67	115	500	0	
091107	13:05	847	UR67 producer	116	2940	producer	
091107	13:05	847	JAUR67	117	1942	4	
091107	13:05	847	JAseeUR36	118	500	0	
091107	13:05	847	UR36 denim	119	4594	denim	
091107	13:05	847	JAUR36	120	3203	3	
091107	13:05	847	JAseeUR34	121	500	0	
091107	13:05	847	UR34 charity	122	4059	charity	
091107	13:05	847	JAUR34	123	2211	7	
091107	13:05	847	JAseeLH14	124	500	0	
091107	13:05	847	LH14 note	125	4170	note	
091107	13:05	847	JALH14	126	1927	2	
091107	13:05	847	JAseeHL50	127	500	0	
091107	13:05	847	HL50 doctor	128	2659	doctor	
091107	13:05	847	JAHL50	129	4462	6	
091107	13:05	847	JAseeLH03	130	500	0	
091107	13:05	847	LH03 yard	131	2035	yard	
091107	13:05	847	JALH03	132	2680	2	
091107	13:05	847	JAseeLH22	133	500	0	
091107	13:05	847	LH22 crowd	134	2588	crowd	
091107	13:05	847	JALH22	135	3691	3	
091107	13:05	847	JAseeUR46	136	500	0	
091107	13:05	847	UR46 content	137	2397	content	
091107	13:05	847	JAUR46	138	906	4	
091107	13:05	847	JAseeUR75	139	500	0	
091107	13:05	847	UR75 awe	140	3278	awe	
091107	13:05	847	JAUR75	141	3101	4	
091107	13:05	847	JAseeUR78	142	500	0	
091107	13:05	847	UR78 blender	143	2345	blender	
091107	13:05	847	JAUR78	144	6783	9	
091107	13:05	847	JAseeHL39	145	500	0	
091107	13:05	847	HL39 book	146	2207	book	
091107	13:05	847	JAHL39	147	4837	5	
091107	13:05	847	JAseeUR62	148	500	0	
091107	13:05	847	UR62 chemistry	149	4881	chemistry	
091107	13:05	847	JAUR62	150	7099	6	
091107	13:05	847	JAseeLH04	151	500	0	
091107	13:05	847	LH04 grade	152	3632	grade	
091107	13:05	847	JALH04	153	3853	3	
091107	13:05	847	JAseeHL03	154	500	0	
091107	13:05	847	HL03 cigarette	155	3127	cigarette	
091107	13:05	847	JAHL03	156	6087	7	
091107	13:05	847	JAseeUR20	157	500	0	
091107	13:05	847	UR20 climax	158	4032	climax	
091107	13:05	847	JAUR20	159	2449	3	
091107	13:05	847	JAseeLH23	160	500	0	
091107	13:05	847	LH23 possibility	161	2864	possible	
091107	13:05	847	JALH23	162	2348	2	
091107	13:05	847	JAseeHL09	163	500	0	
091107	13:05	847	HL09 chalk	164	2515	chalk	
091107	13:05	847	JAHL09	165	2872	10	
091107	13:05	847	JAseeLH01	166	500	0	
091107	13:05	847	LH01 brain	167	2161	brain	
091107	13:05	847	JALH01	168	2398	7	
091107	13:05	847	JAseeHL42	169	500	0	
091107	13:05	847	HL42 pie	170	1687	pie	
091107	13:05	847	JAHL42	171	2090	7	
091107	13:05	847	JAseeLH43	172	500	0	
091107	13:05	847	LH43 noise	173	2544	noise	
091107	13:05	847	JALH43	174	2469	3	
091107	13:05	847	JAseeLH30	175	500	0	
091107	13:05	847	LH30 assignment	176	3194	assignment	
091107	13:05	847	JALH30	177	562	2	
091107	13:05	847	JAseeLH53	178	500	0	
091107	13:05	847	LH53 core	179	1486	core	
091107	13:05	847	JALH53	180	1929	2	
091107	13:05	847	JAseeUR47	181	500	0	
091107	13:05	847	UR47 chimpanzee	182	3936	chimp	
091107	13:05	847	JAUR47	183	5427	5	
091107	13:05	847	JAseeUR42	184	500	0	
091107	13:05	847	UR42 sergeant	185	2659	serve	
091107	13:05	847	JAUR42	186	6066	6	
091107	13:05	847	JAseeUR01	187	500	0	
091107	13:05	847	UR01 file	188	1488	file	
091107	13:05	847	JAUR01	189	2236	7	
091107	13:05	847	JAseeUR87	190	500	0	
091107	13:05	847	UR87 duty	191	2436	duty	
091107	13:05	847	JAUR87	192	5352	7	
091107	13:05	847	JAseeHL24	193	500	0	
091107	13:05	847	HL24 eye	194	1706	eye	
091107	13:05	847	JAHL24	195	3495	1	
091107	13:05	847	JAseeUR58	196	500	0	
091107	13:05	847	UR58 answer	197	3181	answer	
091107	13:05	847	JAUR58	198	6123	8	
091107	13:05	847	JAseeHL41	199	500	0	
091107	13:05	847	HL41 hand	200	3671	hand	
091107	13:05	847	JAHL41	201	7934	3	
091107	13:05	847	JAseeUR54	202	500	0	
091107	13:05	847	UR54 steam	203	1821	steam	
091107	13:05	847	JAUR54	204	3714	3	
091107	13:05	847	JAseeUR82	205	500	0	
091107	13:05	847	UR82 campus	206	3456	campus	
091107	13:05	847	JAUR82	207	3937	5	
091107	13:05	847	JAseeHL49	208	500	0	
091107	13:05	847	HL49 spice	209	1799	spice	
091107	13:05	847	JAHL49	210	2787	3	
091107	13:05	847	JAseeUR103	211	500	0	
091107	13:05	847	UR103 hula	212	3684	haha	
091107	13:05	847	JAUR103	213	2748	8	
091107	13:05	847	JAseeUR70	214	500	0	
091107	13:05	847	UR70 pajamas	215	3509	pajama	
091107	13:05	847	JAUR70	216	3609	3	
091107	13:05	847	JAseeHL23	217	500	0	
091107	13:05	847	HL23 baby	218	3952	baby	
091107	13:05	847	JAHL23	219	3868	8	
091107	13:05	847	JAseeLH09	220	500	0	
091107	13:05	847	LH09 piece	221	2958	piece	
091107	13:05	847	JALH09	222	6702	6	
091107	13:05	847	JAseeHL05	223	500	0	
091107	13:05	847	HL05 mountain	224	3529	mountain	
091107	13:05	847	JAHL05	225	3217	5	
091107	13:05	847	JAseeHL25	226	500	0	
091107	13:05	847	HL25 cut	227	1381	cut	
091107	13:05	847	JAHL25	228	1700	5	
091107	13:05	847	JAseeHL32	229	500	0	
091107	13:05	847	HL32 television	230	3476	television	
091107	13:05	847	JAHL32	231	7200	1	
091107	13:05	847	JAseeLH38	232	500	0	
091107	13:05	847	LH38 paint	233	1714	paint	
091107	13:05	847	JALH38	234	7171	4	
091107	13:05	847	JAseeUR52	235	500	0	
091107	13:05	847	UR52 knight	236	2068	knight	
091107	13:05	847	JAUR52	237	3775	8	
091107	13:05	847	JAseePR28	238	500	0	
091107	13:05	847	PR28 challenge	239	3058	challenge	
091107	13:05	847	JAPR28	240	2952	5	
091107	13:05	847	JAseeLH25	241	500	0	
091107	13:05	847	LH25 track	242	2506	track	
091107	13:05	847	JALH25	243	5675	9	
091107	13:05	847	JAseeUR24	244	500	0	
091107	13:05	847	UR24 kid	245	1644	kid	
091107	13:05	847	JAUR24	246	1937	6	
091107	13:05	847	JAseeUR17	247	500	0	
091107	13:05	847	UR17 trance	248	4037	trance	
091107	13:05	847	JAUR17	249	2735	7	
091107	13:05	847	JAseeHL10	250	500	0	
091107	13:05	847	HL10 cow	251	2291	cow	
091107	13:05	847	JAHL10	252	2995	5	
091107	13:05	847	JAseeUR30	253	500	0	
091107	13:05	847	UR30 lover	254	1793	lover	
091107	13:05	847	JAUR30	255	2985	3	
091107	13:05	847	JAseeUR14	256	500	0	
091107	13:05	847	UR14 fudge	257	2371	fudge	
091107	13:05	847	JAUR14	258	13634	3	
091107	13:05	847	JAseeUR60	259	500	0	
091107	13:05	847	UR60 plaque	260	3028	plague	
091107	13:05	847	JAUR60	261	3260	3	
091107	13:05	847	JAseeHL21	262	500	0	
091107	13:05	847	HL21 empire	263	3088	empire	
091107	13:05	847	JAHL21	264	6832	5	
091107	13:05	847	JAseeHL45	265	500	0	
091107	13:05	847	HL45 words	266	2076	words	
091107	13:05	847	JAHL45	267	1933	4	
091107	13:05	847	JAseeUR107	268	500	0	
091107	13:05	847	UR107 cocaine	269	2046	cocaine	
091107	13:05	847	JAUR107	270	4499	8	
091107	13:05	847	JAseeLH46	271	500	0	
091107	13:05	847	LH46 submarine	272	3441	submarine	
091107	13:05	847	JALH46	273	5600	1	
091107	13:05	847	JAseeUR85	274	500	0	
091107	13:05	847	UR85 stroke	275	2103	stroke	
091107	13:05	847	JAUR85	276	4892	2	
091107	13:05	847	JAseeUR28	277	500	0	
091107	13:05	847	UR28 bang	278	1499	bang	
091107	13:05	847	JAUR28	279	4491	7	
091107	13:05	847	JAseeUR98	280	500	0	
091107	13:05	847	UR98 latch	281	2923	latch	
091107	13:05	847	JAUR98	282	2959	7	
091107	13:05	847	JAseeUR105	283	500	0	
091107	13:05	847	UR105 curtain	284	2848	curtain	
091107	13:05	847	JAUR105	285	5022	1	
091107	13:05	847	JAseeUR65	286	500	0	
091107	13:05	847	UR65 checkers	287	2148	checkers	
091107	13:05	847	JAUR65	288	5139	9	
091107	13:05	847	JAseeUR106	289	500	0	
091107	13:05	847	UR106 eagle	290	1771	eagle	
091107	13:05	847	JAUR106	291	1857	10	
091107	13:05	847	JAseeLH17	292	500	0	
091107	13:05	847	LH17 life	293	1838	life	
091107	13:05	847	JALH17	294	5328	7	
091107	13:05	847	JAseeUR04	295	500	0	
091107	13:05	847	UR04 marsh	296	1584	marsh	
091107	13:05	847	JAUR04	297	3681	8	
091107	13:05	847	JAseeHL31	298	500	0	
091107	13:05	847	HL31 war	299	1758	war	
091107	13:05	847	JAHL31	300	2858	5	
091107	13:05	847	JAseeLH07	301	500	0	
091107	13:05	847	LH07 rear	302	3309	rear	
091107	13:05	847	JALH07	303	3867	3	
091107	13:05	847	JAseeHL33	304	500	0	
091107	13:05	847	HL33 joke	305	1448	joke	
091107	13:05	847	JAHL33	306	2256	3	
091107	13:05	847	JAseeHL01	307	500	0	
091107	13:05	847	HL01 elephant	308	3518	elephant	
091107	13:05	847	JAHL01	309	1954	2	
091107	13:05	847	JAseeLH37	310	500	0	
091107	13:05	847	LH37 pad	311	1336	pad	
091107	13:05	847	JALH37	312	5843	2	
091107	13:05	847	JAseeHL14	313	500	0	
091107	13:05	847	HL14 milk	314	1804	milk	
091107	13:05	847	JAHL14	315	3514	6	
091107	13:05	847	JAseeUR96	316	500	0	
091107	13:05	847	UR96 dessert	317	3764	desert	
091107	13:05	847	JAUR96	318	5293	2	
091107	13:05	847	JAseeLH32	319	500	0	
091107	13:05	847	LH32 capacity	320	3080	capacity	
091107	13:05	847	JALH32	321	7723	3	
091107	13:05	847	JAseeUR59	322	500	0	
091107	13:05	847	UR59 copper	323	2521	copy	
091107	13:05	847	JAUR59	324	3286	8	
091107	13:05	847	JAseeUR21	325	500	0	
091107	13:05	847	UR21 ore	326	4482	core	
091107	13:05	847	JAUR21	327	15138	7	
091107	13:05	847	JSseePR26	1	500	0	
091107	13:05	847	PR26 colonel	2	5838	control	
091107	13:05	847	JSPR26	3	14903	6	
091107	13:05	847	JSseePR24	4	500	0	
091107	13:05	847	PR24 pest	5	2334	pest	
091107	13:05	847	JSPR24	6	4071	5	
091107	13:05	847	JSseePR08	7	500	0	
091107	13:05	847	PR08 beef	8	2681	beef	
091107	13:05	847	JSPR08	9	2665	8	
091107	13:05	847	JSseePR05	10	500	0	
091107	13:05	847	PR05 calf	11	1282	calf	
091107	13:05	847	JSPR05	12	2606	8	
091107	13:05	847	JSseePR14	13	500	0	
091107	13:05	847	PR14 religion	14	2829	religion	
091107	13:05	847	JSPR14	15	6152	6	
091107	13:05	847	JSseePR19	16	500	0	
091107	13:05	847	PR19 void	17	5720	void	
091107	13:05	847	JSPR19	18	2421	6	
091107	13:05	847	JSseePR12	19	500	0	
091107	13:05	847	PR12 royalty	20	3447	royalty	
091107	13:05	847	JSPR12	21	8906	8	
091107	13:05	847	JSseePR02	22	500	0	
091107	13:05	847	PR02 wrinkle	23	2265	wrinkle	
091107	13:05	847	JSPR02	24	3921	4	
091107	13:05	847	JSseePR10	25	500	0	
091107	13:05	847	PR10 camel	26	2058	camel	
091107	13:05	847	JSPR10	27	6341	4	
091107	13:05	847	JSseePR15	28	500	0	
091107	13:05	847	PR15 depletion	29	8381	depletion	
091107	13:05	847	JSPR15	30	1024	7	
091107	13:05	847	JSseePR20	31	500	0	
091107	13:05	847	PR20 advertisement	32	4293	advertisement	
091107	13:05	847	JSPR20	33	3391	3	
091107	13:05	847	JSseePR29	34	500	0	
091107	13:05	847	PR29 mermaid	35	28939	mermaid	
091107	13:05	847	JSPR29	36	3822	8	
091107	13:05	847	JSseePR16	37	500	0	
091107	13:05	847	PR16 compulsion	38	4997	compluse	
091107	13:05	847	JSPR16	39	4699	4	
091107	13:05	847	JSseePR22	40	500	0	
091107	13:05	847	PR22 ass	41	2204	ass	
091107	13:05	847	JSPR22	42	3472	6	
091107	13:05	847	JSseePR18	43	500	0	
091107	13:05	847	PR18 clorox	44	5880	close	
091107	13:05	847	JSPR18	45	3469	2	
091107	13:05	847	JSseeUR33	1	500	0	
091107	13:05	847	UR33 horror	2	2816	horror	
091107	13:05	847	JSUR33	3	4470	7	
091107	13:05	847	JSseeUR41	4	500	0	
091107	13:05	847	UR41 chime	5	8007	chill	
091107	13:05	847	JSUR41	6	3600	6	
091107	13:05	847	JSseeLH06	7	500	0	
091107	13:05	847	LH06 element	8	2875	element	
091107	13:05	847	JSLH06	9	2599	6	
091107	13:05	847	JSseeHL40	10	500	0	
091107	13:05	847	HL40 temperature	11	3210	temperature	
091107	13:05	847	JSHL40	12	4878	3	
091107	13:05	847	JSseeLH10	13	500	0	
091107	13:05	847	LH10 care	14	1299	care	
091107	13:05	847	JSLH10	15	1528	6	
091107	13:05	847	JSseeHL16	16	500	0	
091107	13:05	847	HL16 broom	17	3913	broom	
091107	13:05	847	JSHL16	18	2055	5	
091107	13:05	847	JSseeLH42	19	500	0	
091107	13:05	847	LH42 thought	20	2452	thought	
091107	13:05	847	JSLH42	21	457	2	
091107	13:05	847	JSseeLH44	22	500	0	
091107	13:05	847	LH44 vessel	23	2583	vessel	
091107	13:05	847	JSLH44	24	3177	4	
091107	13:05	847	JSseeLH41	25	500	0	
091107	13:05	847	LH41 girl	26	1306	girl	
091107	13:05	847	JSLH41	27	4522	5	
091107	13:05	847	JSseeHL08	28	500	0	
091107	13:05	847	HL08 math	29	1413	math	
091107	13:05	847	JSHL08	30	531	8	
091107	13:05	847	JSseeHL30	31	500	0	
091107	13:05	847	HL30 air	32	1984	air	
091107	13:05	847	JSHL30	33	3754	5	
091107	13:05	847	JSseeLH34	34	500	0	
091107	13:05	847	LH34 panel	35	1628	panel	
091107	13:05	847	JSLH34	36	1870	7	
091107	13:05	847	JSseeHL37	37	500	0	
091107	13:05	847	HL37 thread	38	2273	thread	
091107	13:05	847	JSHL37	39	1948	5	
091107	13:05	847	JSseeUR23	40	500	0	
091107	13:05	847	UR23 abundance	41	3953	abundance	
091107	13:05	847	JSUR23	42	3436	3	
091107	13:05	847	JSseeUR94	43	500	0	
091107	13:05	847	UR94 bristle	44	2488	brisket	
091107	13:05	847	JSUR94	45	5622	4	
091107	13:05	847	JSseeLH29	46	500	0	
091107	13:05	847	LH29 closet	47	2441	closet	
091107	13:05	847	JSLH29	48	3166	6	
091107	13:05	847	JSseeUR97	49	500	0	
091107	13:05	847	UR97 banner	50	1556	banner	
091107	13:05	847	JSUR97	51	5705	3	
091107	13:05	847	JSseeUR73	52	500	0	
091107	13:05	847	UR73 kite	53	1958	kite	
091107	13:05	847	JSUR73	54	7269	6	
091107	13:05	847	JSseeHL15	55	500	0	
091107	13:05	847	HL15 bomb	56	3828	bomb	
091107	13:05	847	JSHL15	57	4392	3	
091107	13:05	847	JSseeUR05	58	500	0	
091107	13:05	847	UR05 lease	59	2924	lease	
091107	13:05	847	JSUR05	60	3028	2	
091107	13:05	847	JSseeLH40	61	500	0	
091107	13:05	847	LH40 field	62	2967	field	
091107	13:05	847	JSLH40	63	10379	4	
091107	13:05	847	JSseeUR09	64	500	0	
091107	13:05	847	UR09 education	65	5344	education	
091107	13:05	847	JSUR09	66	5639	3	
091107	13:05	847	JSseeHL18	67	500	0	
091107	13:05	847	HL18 paper	68	1902	paper	
091107	13:05	847	JSHL18	69	586	6	
091107	13:05	847	JSseeUR61	70	500	0	
091107	13:05	847	UR61 suicide	71	2630	suicide	
091107	13:05	847	JSUR61	72	7045	5	
091107	13:05	847	JSseeLH18	73	500	0	
091107	13:05	847	LH18 edge	74	1477	edge	
091107	13:05	847	JSLH18	75	2655	5	
091107	13:05	847	JSseeHL04	76	500	0	
091107	13:05	847	HL04 beer	77	2523	beer	
091107	13:05	847	JSHL04	78	4357	6	
091107	13:05	847	JSseeUR19	79	500	0	
091107	13:05	847	UR19 bison	80	1629	bison	
091107	13:05	847	JSUR19	81	21872	3	
091107	13:05	847	JSseeLH12	82	500	0	
091107	13:05	847	LH12 addition	83	2145	addition	
091107	13:05	847	JSLH12	84	2335	4	
091107	13:05	847	JSseeHL02	85	500	0	
091107	13:05	847	HL02 flower	86	1581	flower	
091107	13:05	847	JSHL02	87	5303	5	
091107	13:05	847	JSseeLH36	88	500	0	
091107	13:05	847	LH36 gang	89	2967	gang	
091107	13:05	847	JSLH36	90	2422	4	
091107	13:05	847	JSseeLH48	91	500	0	
091107	13:05	847	LH48 outcome	92	2210	outcome	
091107	13:05	847	JSLH48	93	3759	2	
091107	13:05	847	JSseeLH15	94	500	0	
091107	13:05	847	LH15 blessing	95	5376	blessing	
091107	13:05	847	JSLH15	96	2331	3	
091107	13:05	847	JSseeHL35	97	500	0	
091107	13:05	847	HL35 cake	98	1932	cake	
091107	13:05	847	JSHL35	99	3361	6	
091107	13:05	847	JSseeUR40	100	500	0	
091107	13:05	847	UR40 dancer	101	2209	dance	
091107	13:05	847	JSUR40	102	1265	7	
091107	13:05	847	JSseeUR88	103	500	0	
091107	13:05	847	UR88 circus	104	1927	circus	
091107	13:05	847	JSUR88	105	4983	3	
091107	13:05	847	JSseeUR81	106	500	0	
091107	13:05	847	UR81 acid	107	2042	acid	
091107	13:05	847	JSUR81	108	3276	4	
091107	13:05	847	JSseeUR92	109	500	0	
091107	13:05	847	UR92 dart	110	1544	dark	
091107	13:05	847	JSUR92	111	2356	5	
091107	13:05	847	JSseeHL44	112	500	0	
091107	13:05	847	HL44 baseball	113	4007	baseball	
091107	13:05	847	JSHL44	114	1740	7	
091107	13:05	847	JSseeHL46	115	500	0	
091107	13:05	847	HL46 butter	116	1780	butter	
091107	13:05	847	JSHL46	117	4467	5	
091107	13:05	847	JSseeUR15	118	500	0	
091107	13:05	847	UR15 compass	119	3102	compass	
091107	13:05	847	JSUR15	120	45484	4	
091107	13:05	847	JSseeLH35	121	500	0	
091107	13:05	847	LH35 shelter	122	2977	shelter	
091107	13:05	847	JSLH35	123	2679	7	
091107	13:05	847	JSseeUR91	124	500	0	
091107	13:05	847	UR91 anteater	125	3816	anter	
091107	13:05	847	JSUR91	126	1321	5	
091107	13:05	847	JSseeLH08	127	500	0	
091107	13:05	847	LH08 house	128	2860	house	
091107	13:05	847	JSLH08	129	1496	5	
091107	13:05	847	JSseeLH21	130	500	0	
091107	13:05	847	LH21 monument	131	9434	service	
091107	13:05	847	JSLH21	132	3368	4	
091107	13:05	847	JSseeUR83	133	500	0	
091107	13:05	847	UR83 lesson	134	1757	lesson	
091107	13:05	847	JSUR83	135	1212	4	
091107	13:05	847	JSseeHL22	136	500	0	
091107	13:05	847	HL22 problem	137	2253	problem	
091107	13:05	847	JSHL22	138	1800	3	
091107	13:05	847	JSseeLH47	139	500	0	
091107	13:05	847	LH47 detergent	140	2440	detergent	
091107	13:05	847	JSLH47	141	746	8	
091107	13:05	847	JSseeUR56	142	500	0	
091107	13:05	847	UR56 antler	143	1699	antler	
091107	13:05	847	JSUR56	144	3367	3	
091107	13:05	847	JSseeUR80	145	500	0	
091107	13:05	847	UR80 antique	146	4753	antique	
091107	13:05	847	JSUR80	147	1730	6	
091107	13:05	847	JSseeUR11	148	500	0	
091107	13:05	847	UR11 foundation	149	4201	foundation	
091107	13:05	847	JSUR11	150	2915	4	
091107	13:05	847	JSseeHL11	151	500	0	
091107	13:05	847	HL11 rock	152	1822	rock	
091107	13:05	847	JSHL11	153	494	7	
091107	13:05	847	JSseeLH16	154	500	0	
091107	13:05	847	LH16 power	155	1599	power	
091107	13:05	847	JSLH16	156	2038	2	
091107	13:05	847	JSseeUR18	157	500	0	
091107	13:05	847	UR18 relief	158	6260	relief	
091107	13:05	847	JSUR18	159	473	2	
091107	13:05	847	JSseeLH39	160	500	0	
091107	13:05	847	LH39 reward	161	2423	reward	
091107	13:05	847	JSLH39	162	2831	3	
091107	13:05	847	JSseeUR79	163	500	0	
091107	13:05	847	UR79 beetle	164	4552	beetle	
091107	13:05	847	JSUR79	165	3067	4	
091107	13:05	847	JSseeUR102	166	500	0	
091107	13:05	847	UR102 velocity	167	7664	velocity	
091107	13:05	847	JSUR102	168	2560	5	
091107	13:05	847	JSseeUR101	169	500	0	
091107	13:05	847	UR101 beard	170	1496	beard	
091107	13:05	847	JSUR101	171	646	3	
091107	13:05	847	JSseeUR72	172	500	0	
091107	13:05	847	UR72 band	173	2133	band	
091107	13:05	847	JSUR72	174	1219	8	
091107	13:05	847	JSseeUR51	175	500	0	
091107	13:05	847	UR51 cabbage	176	4173	cabbage	
091107	13:05	847	JSUR51	177	3679	5	
091107	13:05	847	JSseeHL54	178	500	0	
091107	13:05	847	HL54 indian	179	1757	indian	
091107	13:05	847	JSHL54	180	1911	5	
091107	13:05	847	JSseeUR39	181	500	0	
091107	13:05	847	UR39 faith	182	2290	rich	
091107	13:05	847	JSUR39	183	2005	6	
091107	13:05	847	JSseeUR49	184	500	0	
091107	13:05	847	UR49 casket	185	3098	casket	
091107	13:05	847	JSUR49	186	982	6	
091107	13:05	847	JSseeLH49	187	500	0	
091107	13:05	847	LH49 kindness	188	2192	kindness	
091107	13:05	847	JSLH49	189	2100	5	
091107	13:05	847	JSseeUR10	190	500	0	
091107	13:05	847	UR10 tribe	191	3442	tribe	
091107	13:05	847	JSUR10	192	2736	4	
091107	13:05	847	JSseeHL06	193	500	0	
091107	13:05	847	HL06 egg	194	1556	egg	
091107	13:05	847	JSHL06	195	844	7	
091107	13:05	847	JSseeUR71	196	500	0	
091107	13:05	847	UR71 padding	197	1845	pudding	
091107	13:05	847	JSUR71	198	3684	7	
091107	13:05	847	JSseeUR25	199	500	0	
091107	13:05	847	UR25 partner	200	2894	partner	
091107	13:05	847	JSUR25	201	2128	8	
091107	13:05	847	JSseeUR03	202	500	0	
091107	13:05	847	UR03 vehicle	203	2739	vehicle	
091107	13:05	847	JSUR03	204	2028	3	
091107	13:05	847	JSseeHL28	205	500	0	
091107	13:05	847	HL28 bird	206	1875	bird	
091107	13:05	847	JSHL28	207	2660	4	
091107	13:05	847	JSseeUR100	208	500	0	
091107	13:05	847	UR100 comb	209	1404	comb	
091107	13:05	847	JSUR100	210	4281	6	
091107	13:05	847	JSseeUR89	211	500	0	
091107	13:05	847	UR89 crow	212	1681	crow	
091107	13:05	847	JSUR89	213	3828	4	
091107	13:05	847	JSseeUR29	214	500	0	
091107	13:05	847	UR29 patrol	215	3717	patron	
091107	13:05	847	JSUR29	216	2594	2	
091107	13:05	847	JSseeHL38	217	500	0	
091107	13:05	847	HL38 boat	218	3228	boat	
091107	13:05	847	JSHL38	219	3287	5	
091107	13:05	847	JSseeLH33	220	500	0	
091107	13:05	847	LH33 fable	221	3232	fable	
091107	13:05	847	JSLH33	222	569	7	
091107	13:05	847	JSseeUR31	223	500	0	
091107	13:05	847	UR31 diameter	224	3270	diameter	
091107	13:05	847	JSUR31	225	5334	3	
091107	13:05	847	JSseeHL19	226	500	0	
091107	13:05	847	HL19 car	227	1170	car	
091107	13:05	847	JSHL19	228	8532	3	
091107	13:05	847	JSseeLH31	229	500	0	
091107	13:05	847	LH31 self	230	4210	self	
091107	13:05	847	JSLH31	231	1646	4	
091107	13:05	847	JSseeLH13	232	500	0	
091107	13:05	847	LH13 crease	233	2497	cream	
091107	13:05	847	JSLH13	234	3113	3	
091107	13:05	847	JSseeUR37	235	500	0	
091107	13:05	847	UR37 cloth	236	1453	cloth	
091107	13:05	847	JSUR37	237	2704	2	
091107	13:05	847	JSseeHL27	238	500	0	
091107	13:05	847	HL27 rain	239	2126	rain	
091107	13:05	847	JSHL27	240	441	3	
091107	13:05	847	JSseeUR104	241	500	0	
091107	13:05	847	UR104 aardvark	242	3774	aardvark	
091107	13:05	847	JSUR104	243	5891	2	
091107	13:05	847	JSseeUR38	244	500	0	
091107	13:05	847	UR38 energy	245	3081	enemy	
091107	13:05	847	JSUR38	246	1688	6	
091107	13:05	847	JSseeUR90	247	500	0	
091107	13:05	847	UR90 sailing	248	2011	sailing	
091107	13:05	847	JSUR90	249	3617	4	
091107	13:05	847	JSseeUR57	250	500	0	
091107	13:05	847	UR57 benefit	251	4083	control	
091107	13:05	847	JSUR57	252	6082	8	
091107	13:05	847	JSseeUR86	253	500	0	
091107	13:05	847	UR86 boulevard	254	2957	rock	
091107	13:05	847	JSUR86	255	3618	3	
091107	13:05	847	JSseeLH45	256	500	0	
091107	13:05	847	LH45 intellect	257	4272	intellect	
091107	13:05	847	JSLH45	258	2519	6	
091107	13:05	847	JSseeLH26	259	500	0	
091107	13:05	847	LH26 center	260	1742	center	
091107	13:05	847	JSLH26	261	3355	3	
091107	13:05	847	JSseeUR12	262	500	0	
091107	13:05	847	UR12 unicorn	263	3366	unicorn	
091107	13:05	847	JSUR12	264	2351	7	
091107	13:05	847	JSseeUR108	265	500	0	
091107	13:05	847	UR108 shield	266	3460	shield	
091107	13:05	847	JSUR108	267	2555	7	
091107	13:05	847	JSseeUR99	268	500	0	
091107	13:05	847	UR99 branch	269	3156	branch	
091107	13:05	847	JSUR99	270	2858	5	
091107	13:05	847	JSseeHL29	271	500	0	
091107	13:05	847	HL29 ring	272	2773	ring	
091107	13:05	847	JSHL29	273	1661	6	
091107	13:05	847	JSseeHL26	274	500	0	
091107	13:05	847	HL26 light	275	1661	care	
091107	13:05	847	JSHL26	276	5258	2	
091107	13:05	847	JSseeLH28	277	500	0	
091107	13:05	847	LH28 vagrant	278	5768	vagrant	
091107	13:05	847	JSLH28	279	1805	2	
091107	13:05	847	JSseeHL52	280	500	0	
091107	13:05	847	HL52 sand	281	1248	sand	
091107	13:05	847	JSHL52	282	1993	5	
091107	13:05	847	JSseeHL48	283	500	0	
091107	13:05	847	HL48 airplane	284	2930	airplane	
091107	13:05	847	JSHL48	285	9617	3	
091107	13:05	847	JSseeUR43	286	500	0	
091107	13:05	847	UR43 balloon	287	4778	balloon	
091107	13:05	847	JSUR43	288	2814	3	
091107	13:05	847	JSseeUR93	289	500	0	
091107	13:05	847	UR93 catcher	290	2929	catcher	
091107	13:05	847	JSUR93	291	20957	4	
091107	13:05	847	JSseeHL20	292	500	0	
091107	13:05	847	HL20 wine	293	3353	wine	
091107	13:05	847	JSHL20	294	1652	3	
091107	13:05	847	JSseeHL13	295	500	0	
091107	13:05	847	HL13 map	296	1266	map	
091107	13:05	847	JSHL13	297	35820	6	
091107	13:05	847	JSseeHL12	298	500	0	
091107	13:05	847	HL12 space	299	1724	space	
091107	13:05	847	JSHL12	300	1654	7	
091107	13:05	847	JSseeUR02	301	500	0	
091107	13:05	847	UR02 comma	302	1804	comma	
091107	13:05	847	JSUR02	303	1324	7	
091107	13:05	847	JSseeUR48	304	500	0	
091107	13:05	847	UR48 democracy	305	2847	democracy	
091107	13:05	847	JSUR48	306	711	8	
091107	13:05	847	JSseeUR08	307	500	0	
091107	13:05	847	UR08 assistant	308	5671	assistant	
091107	13:05	847	JSUR08	309	6725	3	
091107	13:05	847	JSseeUR84	310	500	0	
091107	13:05	847	UR84 flag	311	1669	flag	
091107	13:05	847	JSUR84	312	2541	5	
091107	13:05	847	JSseeUR26	313	500	0	
091107	13:05	847	UR26 eternity	314	2488	eternity	
091107	13:05	847	JSUR26	315	857	3	
091107	13:05	847	JSseeLH52	316	500	0	
091107	13:05	847	LH52 bureau	317	8510	beuracracy	
091107	13:05	847	JSLH52	318	2257	4	
091107	13:05	847	JSseeUR44	319	500	0	
091107	13:05	847	UR44 rot	320	1161	rot	
091107	13:05	847	JSUR44	321	1384	5	
091107	13:05	847	JSseeUR16	322	500	0	
091107	13:05	847	UR16 century	323	2113	century	
091107	13:05	847	JSUR16	324	2940	2	
