date	time	subject	trialcode	trialnum	latency	response
061509	12:03	712	JAPR17	1	23558	3
061509	12:03	712	PR17 emerald	2	15822	laugh
061509	12:03	712	JAPR27	3	8244	3
061509	12:03	712	PR27 wheat	4	2959	wheat
061509	12:03	712	JAPR07	5	4671	2
061509	12:03	712	PR07 bog	6	7839	music
061509	12:03	712	JAPR23	7	2156	6
061509	12:03	712	PR23 companion	8	5864	wrinkle
061509	12:03	712	JAPR06	9	5604	8
061509	12:03	712	PR06 beast	10	10075	witch
061509	12:03	712	JAPR09	11	2554	9
061509	12:03	712	PR09 album	12	8677	jewel
061509	12:03	712	JAPR21	13	1586	9
061509	12:03	712	PR21 innocence	14	12561	innocence
061509	12:03	712	JAPR01	15	2068	8
061509	12:03	712	PR01 cash	16	1593	cash
061509	12:03	712	JAPR11	17	1604	6
061509	12:03	712	PR11 ounce	18	3939	ounce
061509	12:03	712	JAPR25	19	2062	7
061509	12:03	712	PR25 saliva	20	3710	saliva
061509	12:03	712	JAPR30	21	1061	6
061509	12:03	712	PR30 maiden	22	1630	maiden
061509	12:03	712	JAPR03	23	1332	5
061509	12:03	712	PR03 acre	24	1716	acre
061509	12:03	712	JAPR13	25	1538	5
061509	12:03	712	PR13 ambition	26	1955	ambition
061509	12:03	712	JAPR04	27	1386	5
061509	12:03	712	PR04 diaper	28	1563	diaper
061509	12:03	712	JAUR53	1	2295	8
061509	12:03	712	UR53 hell	2	1261	hell
061509	12:03	712	JAUR13	3	1230	6
061509	12:03	712	UR13 almanac	4	2556	almanac
061509	12:03	712	JAHL07	5	1418	6
061509	12:03	712	HL07 king	6	1714	king
061509	12:03	712	JALH05	7	1445	9
061509	12:03	712	LH05 chain	8	2662	chain
061509	12:03	712	JALH02	9	1493	5
061509	12:03	712	LH02 harm	10	7728	theater
061509	12:03	712	JAUR64	11	2358	7
061509	12:03	712	UR64 fist	12	2253	first
061509	12:03	712	JAUR32	13	1434	5
061509	12:03	712	UR32 navigator	14	3407	navigator
061509	12:03	712	JALH50	15	2338	5
061509	12:03	712	LH50 measure	16	1779	measure
061509	12:03	712	JALH27	17	1261	8
061509	12:03	712	LH27 condition	18	2282	condition
061509	12:03	712	JAHL17	19	1573	6
061509	12:03	712	HL17 soap	20	5013	soap
061509	12:03	712	JAUR74	21	1779	8
061509	12:03	712	UR74 suitcase	22	2089	suitcase
061509	12:03	712	JAHL36	23	1180	8
061509	12:03	712	HL36 football	24	1905	football
061509	12:03	712	JALH20	25	1889	5
061509	12:03	712	LH20 violation	26	8958	tragedy
061509	12:03	712	JALH54	27	2783	5
061509	12:03	712	LH54 limit	28	3873	years
061509	12:03	712	JALH51	29	1946	8
061509	12:03	712	LH51 exit	30	3861	exit
061509	12:03	712	JAUR35	31	1465	9
061509	12:03	712	UR35 cause	32	1881	cause
061509	12:03	712	JALH19	33	1333	6
061509	12:03	712	LH19 snob	34	3479	snob
061509	12:03	712	JAHL51	35	1714	6
061509	12:03	712	HL51 color	36	2298	color
061509	12:03	712	JAHL47	37	1555	6
061509	12:03	712	HL47 horse	38	1638	horse
061509	12:03	712	JAUR45	39	2227	5
061509	12:03	712	UR45 bridge	40	3623	carraige
061509	12:03	712	JAUR69	41	1726	8
061509	12:03	712	UR69 flashlight	42	5999	coke
061509	12:03	712	JAUR76	43	2110	7
061509	12:03	712	UR76 dignity	44	12810	soda
061509	12:03	712	JALH24	45	1946	6
061509	12:03	712	LH24 feeling	46	2338	feeling
061509	12:03	712	JAHL53	47	1275	8
061509	12:03	712	HL53 fish	48	1208	fish
061509	12:03	712	JAUR55	49	1633	6
061509	12:03	712	UR55 bargain	50	2902	bargain
061509	12:03	712	JAUR50	51	1638	4
061509	12:03	712	UR50 crane	52	1490	crane
061509	12:03	712	JAHL43	53	1554	4
061509	12:03	712	HL43 money	54	1692	money
061509	12:03	712	JALH11	55	1369	8
061509	12:03	712	LH11 cancer	56	3938	cancer
061509	12:03	712	JAUR77	57	1817	4
061509	12:03	712	UR77 uncle	58	1759	uncle
061509	12:03	712	JAUR27	59	1676	8
061509	12:03	712	UR27 consequence	60	4582	honesty
061509	12:03	712	JAUR68	61	1174	8
061509	12:03	712	UR68 fatigue	62	1838	fatigue
061509	12:03	712	JAUR22	63	1013	7
061509	12:03	712	UR22 thesaurus	64	9025	thesaurus
061509	12:03	712	JAUR07	65	1249	8
061509	12:03	712	UR07 gathering	66	2299	gathering
061509	12:03	712	JAUR95	67	849	7
061509	12:03	712	UR95 fool	68	1326	fool
061509	12:03	712	JAUR63	69	2958	5
061509	12:03	712	UR63 alley	70	1549	alley
061509	12:03	712	JAUR06	71	1342	6
061509	12:03	712	UR06 cello	72	1776	call
061509	12:03	712	JAHL34	73	855	8
061509	12:03	712	HL34 hunger	74	1322	hunger
061509	12:03	712	JAUR66	75	1519	9
061509	12:03	712	UR66 chief	76	4918	disease
061509	12:03	712	JAUR67	77	1375	9
061509	12:03	712	UR67 producer	78	2380	producer
061509	12:03	712	JAUR36	79	952	8
061509	12:03	712	UR36 denim	80	1626	denim
061509	12:03	712	JAUR34	81	947	8
061509	12:03	712	UR34 charity	82	2253	charity
061509	12:03	712	JALH14	83	1632	8
061509	12:03	712	LH14 note	84	1749	note
061509	12:03	712	JAHL50	85	2441	8
061509	12:03	712	HL50 doctor	86	1759	doctor
061509	12:03	712	JALH03	87	1478	7
061509	12:03	712	LH03 yard	88	1978	yard
061509	12:03	712	JALH22	89	936	8
061509	12:03	712	LH22 crowd	90	1843	crowd
061509	12:03	712	JAUR46	91	708	8
061509	12:03	712	UR46 content	92	1753	content
061509	12:03	712	JAUR75	93	1645	8
061509	12:03	712	UR75 awe	94	1076	awe
061509	12:03	712	JAUR78	95	932	8
061509	12:03	712	UR78 blender	96	1845	blender
061509	12:03	712	JAHL39	97	732	8
061509	12:03	712	HL39 book	98	1732	book
061509	12:03	712	JAUR62	99	598	8
061509	12:03	712	UR62 chemistry	100	2885	chemistry
061509	12:03	712	JALH04	101	637	7
061509	12:03	712	LH04 grade	102	2230	grade
061509	12:03	712	JAHL03	103	1237	8
061509	12:03	712	HL03 cigarette	104	2412	cigarette
061509	12:03	712	JAUR20	105	887	8
061509	12:03	712	UR20 climax	106	2787	climax
061509	12:03	712	JALH23	107	1295	7
061509	12:03	712	LH23 possibility	108	2863	possibility
061509	12:03	712	JAHL09	109	822	7
061509	12:03	712	HL09 chalk	110	1282	chalk
061509	12:03	712	JALH01	111	1291	7
061509	12:03	712	LH01 brain	112	1495	brain
061509	12:03	712	JAHL42	113	906	5
061509	12:03	712	HL42 pie	114	1219	pie
061509	12:03	712	JALH43	115	1071	6
061509	12:03	712	LH43 noise	116	1460	noise
061509	12:03	712	JALH30	117	922	5
061509	12:03	712	LH30 assignment	118	2338	assignment
061509	12:03	712	JALH53	119	1270	6
061509	12:03	712	LH53 core	120	2225	core
061509	12:03	712	JAUR47	121	1271	8
061509	12:03	712	UR47 chimpanzee	122	8367	chimney
061509	12:03	712	JAUR42	123	2720	6
061509	12:03	712	UR42 sergeant	124	6168	dont know
061509	12:03	712	JAUR01	125	1201	9
061509	12:03	712	UR01 file	126	1606	file
061509	12:03	712	JAUR87	127	1449	5
061509	12:03	712	UR87 duty	128	2240	fairy
061509	12:03	712	JAHL24	129	1799	7
061509	12:03	712	HL24 eye	130	3659	eye
061509	12:03	712	JAUR58	131	1632	8
061509	12:03	712	UR58 answer	132	4898	ankle
061509	12:03	712	JAHL41	133	1519	8
061509	12:03	712	HL41 hand	134	1916	hand
061509	12:03	712	JAUR54	135	812	9
061509	12:03	712	UR54 steam	136	2098	steam
061509	12:03	712	JAUR82	137	1304	9
061509	12:03	712	UR82 campus	138	1683	campus
061509	12:03	712	JAHL49	139	2994	4
061509	12:03	712	HL49 spice	140	2684	pie
061509	12:03	712	JAUR103	141	2145	6
061509	12:03	712	UR103 hula	142	4663	comedy
061509	12:03	712	JAUR70	143	1520	4
061509	12:03	712	UR70 pajamas	144	3703	pajamas
061509	12:03	712	JAHL23	145	1568	4
061509	12:03	712	HL23 baby	146	1634	baby
061509	12:03	712	JALH09	147	882	2
061509	12:03	712	LH09 piece	148	4057	piece
061509	12:03	712	JAHL05	149	1252	5
061509	12:03	712	HL05 mountain	150	1770	mountain
061509	12:03	712	JAHL25	151	678	5
061509	12:03	712	HL25 cut	152	2598	cut
061509	12:03	712	JAHL32	153	648	3
061509	12:03	712	HL32 television	154	3170	dont know
061509	12:03	712	JALH38	155	1991	5
061509	12:03	712	LH38 paint	156	7414	pants
061509	12:03	712	JAUR52	157	1238	6
061509	12:03	712	UR52 knight	158	1588	knight
061509	12:03	712	JAPR28	159	791	3
061509	12:03	712	PR28 challenge	160	2203	challenge
061509	12:03	712	JALH25	161	702	2
061509	12:03	712	LH25 track	162	1687	track
061509	12:03	712	JAUR24	163	859	3
061509	12:03	712	UR24 kid	164	1563	kid
061509	12:03	712	JAUR17	165	1438	6
061509	12:03	712	UR17 trance	166	1414	5
061509	12:03	712	JAHL10	167	1435	5
061509	12:03	712	HL10 cow	168	2447	cow
061509	12:03	712	JAUR30	169	1211	6
061509	12:03	712	UR30 lover	170	2921	lover
061509	12:03	712	JAUR14	171	1884	5
061509	12:03	712	UR14 fudge	172	5464	fudge
061509	12:03	712	JAUR60	173	1427	6
061509	12:03	712	UR60 plaque	174	2242	plaque
061509	12:03	712	JAHL21	175	729	8
061509	12:03	712	HL21 empire	176	2485	empire
061509	12:03	712	JAHL45	177	909	3
061509	12:03	712	HL45 words	178	1341	words
061509	12:03	712	JAUR107	179	611	6
061509	12:03	712	UR107 cocaine	180	2658	cocaine
061509	12:03	712	JALH46	181	1306	7
061509	12:03	712	LH46 submarine	182	4783	submarine
061509	12:03	712	JAUR85	183	1050	7
061509	12:03	712	UR85 stroke	184	1759	stroke
061509	12:03	712	JAUR28	185	791	3
061509	12:03	712	UR28 bang	186	1429	bang
061509	12:03	712	JAUR98	187	649	6
061509	12:03	712	UR98 latch	188	1975	latch
061509	12:03	712	JAUR105	189	509	3
061509	12:03	712	UR105 curtain	190	4588	curtain
061509	12:03	712	JAUR65	191	700	4
061509	12:03	712	UR65 checkers	192	2059	checkers
061509	12:03	712	JAUR106	193	604	7
061509	12:03	712	UR106 eagle	194	1814	eagle
061509	12:03	712	JALH17	195	621	7
061509	12:03	712	LH17 life	196	1201	life
061509	12:03	712	JAUR04	197	808	4
061509	12:03	712	UR04 marsh	198	3534	dont know
061509	12:03	712	JAHL31	199	1180	6
061509	12:03	712	HL31 war	200	1021	war
061509	12:03	712	JALH07	201	927	5
061509	12:03	712	LH07 rear	202	1080	red
061509	12:03	712	JAHL33	203	1577	4
061509	12:03	712	HL33 joke	204	1374	joke
061509	12:03	712	JAHL01	205	623	6
061509	12:03	712	HL01 elephant	206	2661	elephant
061509	12:03	712	JALH37	207	541	3
061509	12:03	712	LH37 pad	208	1279	pad
061509	12:03	712	JAHL14	209	502	5
061509	12:03	712	HL14 milk	210	1714	milk
061509	12:03	712	JAUR96	211	497	4
061509	12:03	712	UR96 dessert	212	799	2
061509	12:03	712	JALH32	213	1142	3
061509	12:03	712	LH32 capacity	214	2690	capacity
061509	12:03	712	JAUR59	215	1334	5
061509	12:03	712	UR59 copper	216	1503	copper
061509	12:03	712	JAUR21	217	984	2
061509	12:03	712	UR21 ore	218	4271	ore
061509	12:03	712	JSPR26	1	13874	1
061509	12:03	712	PR26 colonel	2	7067	cause
061509	12:03	712	JSPR24	3	4446	1
061509	12:03	712	PR24 pest	4	1342	peat
061509	12:03	712	JSPR08	5	2090	3
061509	12:03	712	PR08 beef	6	3009	honey
061509	12:03	712	JSPR05	7	1288	5
061509	12:03	712	PR05 calf	8	2458	date
061509	12:03	712	JSPR14	9	1341	5
061509	12:03	712	PR14 religion	10	3186	religion
061509	12:03	712	JSPR19	11	1321	7
061509	12:03	712	PR19 void	12	2866	void
061509	12:03	712	JSPR12	13	2366	5
061509	12:03	712	PR12 royalty	14	4701	royalty
061509	12:03	712	JSPR02	15	2252	1
061509	12:03	712	PR02 wrinkle	16	2684	wrinkle
061509	12:03	712	JSPR10	17	3727	2
061509	12:03	712	PR10 camel	18	1342	camel
061509	12:03	712	JSPR15	19	2925	5
061509	12:03	712	PR15 depletion	20	2184	depletion
061509	12:03	712	JSPR20	21	1967	1
061509	12:03	712	PR20 advertisement	22	3442	advertisement
061509	12:03	712	JSPR29	23	2981	7
061509	12:03	712	PR29 mermaid	24	2868	mermaid
061509	12:03	712	JSPR16	25	2217	2
061509	12:03	712	PR16 compulsion	26	3732	compulsion
061509	12:03	712	JSPR22	27	2427	8
061509	12:03	712	PR22 ass	28	11444	salt
061509	12:03	712	JSPR18	29	3672	2
061509	12:03	712	PR18 clorox	30	2595	clorox
061509	12:03	712	JSUR33	1	4027	5
061509	12:03	712	UR33 horror	2	1368	horse
061509	12:03	712	JSUR41	3	1198	5
061509	12:03	712	UR41 chime	4	2369	dont know
061509	12:03	712	JSLH06	5	1338	5
061509	12:03	712	LH06 element	6	1668	element
061509	12:03	712	JSHL40	7	1979	3
061509	12:03	712	HL40 temperature	8	4437	temperature
061509	12:03	712	JSLH10	9	2014	5
061509	12:03	712	LH10 care	10	959	care
061509	12:03	712	JSHL16	11	2037	6
061509	12:03	712	HL16 broom	12	1399	broom
061509	12:03	712	JSLH42	13	1682	2
061509	12:03	712	LH42 thought	14	2581	thought
061509	12:03	712	JSLH44	15	1487	7
061509	12:03	712	LH44 vessel	16	3927	vessel
061509	12:03	712	JSLH41	17	1746	8
061509	12:03	712	LH41 girl	18	1497	girl
061509	12:03	712	JSHL08	19	1705	7
061509	12:03	712	HL08 math	20	1370	math
061509	12:03	712	JSHL30	21	860	3
061509	12:03	712	HL30 air	22	1042	air
061509	12:03	712	JSLH34	23	1002	6
061509	12:03	712	LH34 panel	24	1385	panel
061509	12:03	712	JSHL37	25	568	4
061509	12:03	712	HL37 thread	26	1333	thread
061509	12:03	712	JSUR23	27	403	5
061509	12:03	712	UR23 abundance	28	2185	abundance
061509	12:03	712	JSUR94	29	423	7
061509	12:03	712	UR94 bristle	30	2651	bristle
061509	12:03	712	JSLH29	31	543	7
061509	12:03	712	LH29 closet	32	2162	closet
061509	12:03	712	JSUR97	33	395	3
061509	12:03	712	UR97 banner	34	1408	banner
061509	12:03	712	JSUR73	35	645	6
061509	12:03	712	UR73 kite	36	1784	knife
061509	12:03	712	JSHL15	37	1242	5
061509	12:03	712	HL15 bomb	38	1176	bomb
061509	12:03	712	JSUR05	39	427	4
061509	12:03	712	UR05 lease	40	1173	lease
061509	12:03	712	JSLH40	41	407	6
061509	12:03	712	LH40 field	42	1389	field
061509	12:03	712	JSUR09	43	430	3
061509	12:03	712	UR09 education	44	3048	education
061509	12:03	712	JSHL18	45	388	3
061509	12:03	712	HL18 paper	46	1060	paper
061509	12:03	712	JSUR61	47	879	2
061509	12:03	712	UR61 suicide	48	2026	suitcase
061509	12:03	712	JSLH18	49	730	3
061509	12:03	712	LH18 edge	50	3187	dont know
061509	12:03	712	JSHL04	51	1897	5
061509	12:03	712	HL04 beer	52	3205	beer
061509	12:03	712	JSUR19	53	644	5
061509	12:03	712	UR19 bison	54	11862	bison
061509	12:03	712	JSLH12	55	1728	5
061509	12:03	712	LH12 addition	56	4012	addition
061509	12:03	712	JSHL02	57	606	3
061509	12:03	712	HL02 flower	58	1902	flower
061509	12:03	712	JSLH36	59	1280	6
061509	12:03	712	LH36 gang	60	2511	danger
061509	12:03	712	JSLH48	61	1483	6
061509	12:03	712	LH48 outcome	62	2761	outcome
061509	12:03	712	JSLH15	63	620	4
061509	12:03	712	LH15 blessing	64	2034	blessing
061509	12:03	712	JSHL35	65	468	7
061509	12:03	712	HL35 cake	66	1941	cake
061509	12:03	712	JSUR40	67	546	7
061509	12:03	712	UR40 dancer	68	2039	dancer
061509	12:03	712	JSUR88	69	501	5
061509	12:03	712	UR88 circus	70	11760	courtyard
061509	12:03	712	JSUR81	71	1485	5
061509	12:03	712	UR81 acid	72	1312	acid
061509	12:03	712	JSUR92	73	478	4
061509	12:03	712	UR92 dart	74	1615	dart
061509	12:03	712	JSHL44	75	553	4
061509	12:03	712	HL44 baseball	76	2497	baseball
061509	12:03	712	JSHL46	77	802	4
061509	12:03	712	HL46 butter	78	1594	butter
061509	12:03	712	JSUR15	79	477	7
061509	12:03	712	UR15 compass	80	1557	compass
061509	12:03	712	JSLH35	81	1354	5
061509	12:03	712	LH35 shelter	82	3845	shelter
061509	12:03	712	JSUR91	83	1371	6
061509	12:03	712	UR91 anteater	84	4940	dont know
061509	12:03	712	JSLH08	85	456	5
061509	12:03	712	LH08 house	86	1725	house
061509	12:03	712	JSLH21	87	604	6
061509	12:03	712	LH21 monument	88	1792	moment
061509	12:03	712	JSUR83	89	1510	4
061509	12:03	712	UR83 lesson	90	1582	lesson
061509	12:03	712	JSHL22	91	3646	4
061509	12:03	712	HL22 problem	92	2751	problem
061509	12:03	712	JSLH47	93	656	6
061509	12:03	712	LH47 detergent	94	2268	detergent
061509	12:03	712	JSUR56	95	1021	4
061509	12:03	712	UR56 antler	96	2396	alter
061509	12:03	712	JSUR80	97	1356	6
061509	12:03	712	UR80 antique	98	2667	fatigue
061509	12:03	712	JSUR11	99	539	7
061509	12:03	712	UR11 foundation	100	5236	foundation
061509	12:03	712	JSHL11	101	407	6
061509	12:03	712	HL11 rock	102	1229	rock
061509	12:03	712	JSLH16	103	408	5
061509	12:03	712	LH16 power	104	1398	power
061509	12:03	712	JSUR18	105	615	7
061509	12:03	712	UR18 relief	106	1988	rail
061509	12:03	712	JSLH39	107	409	3
061509	12:03	712	LH39 reward	108	3584	reward
061509	12:03	712	JSUR79	109	507	5
061509	12:03	712	UR79 beetle	110	1709	beetle
061509	12:03	712	JSUR102	111	563	3
061509	12:03	712	UR102 velocity	112	2467	velocity
061509	12:03	712	JSUR101	113	472	7
061509	12:03	712	UR101 beard	114	1400	beard
061509	12:03	712	JSUR72	115	537	5
061509	12:03	712	UR72 band	116	1284	band
061509	12:03	712	JSUR51	117	459	7
061509	12:03	712	UR51 cabbage	118	1655	cash
061509	12:03	712	JSHL54	119	1152	5
061509	12:03	712	HL54 indian	120	1634	indian
061509	12:03	712	JSUR39	121	858	5
061509	12:03	712	UR39 faith	122	6154	dont know
061509	12:03	712	JSUR49	123	1352	5
061509	12:03	712	UR49 casket	124	3409	casset
061509	12:03	712	JSLH49	125	3082	2
061509	12:03	712	LH49 kindness	126	1840	kindness
061509	12:03	712	JSUR10	127	777	4
061509	12:03	712	UR10 tribe	128	1515	tribe
061509	12:03	712	JSHL06	129	773	3
061509	12:03	712	HL06 egg	130	1129	egg
061509	12:03	712	JSUR71	131	745	3
061509	12:03	712	UR71 padding	132	1764	padding
061509	12:03	712	JSUR25	133	480	5
061509	12:03	712	UR25 partner	134	2855	partner
061509	12:03	712	JSUR03	135	511	5
061509	12:03	712	UR03 vehicle	136	3480	vehicle
061509	12:03	712	JSHL28	137	362	5
061509	12:03	712	HL28 bird	138	1266	bird
061509	12:03	712	JSUR100	139	566	3
061509	12:03	712	UR100 comb	140	1528	comb
061509	12:03	712	JSUR89	141	384	5
061509	12:03	712	UR89 crow	142	1346	crow
061509	12:03	712	JSUR29	143	450	6
061509	12:03	712	UR29 patrol	144	4012	patrol
061509	12:03	712	JSHL38	145	560	3
061509	12:03	712	HL38 boat	146	1161	boat
061509	12:03	712	JSLH33	147	535	5
061509	12:03	712	LH33 fable	148	1537	fable
061509	12:03	712	JSUR31	149	525	5
061509	12:03	712	UR31 diameter	150	1707	diameter
061509	12:03	712	JSHL19	151	536	3
061509	12:03	712	HL19 car	152	878	car
061509	12:03	712	JSLH31	153	419	5
061509	12:03	712	LH31 self	154	1295	self
061509	12:03	712	JSLH13	155	444	3
061509	12:03	712	LH13 crease	156	1624	crease
061509	12:03	712	JSUR37	157	2032	5
061509	12:03	712	UR37 cloth	158	2818	cloth
061509	12:03	712	JSHL27	159	565	9
061509	12:03	712	HL27 rain	160	1236	rain
061509	12:03	712	JSUR104	161	478	6
061509	12:03	712	UR104 aardvark	162	4002	dark
061509	12:03	712	JSUR38	163	1244	6
061509	12:03	712	UR38 energy	164	2072	energy
061509	12:03	712	JSUR90	165	734	5
061509	12:03	712	UR90 sailing	166	1900	sailing
061509	12:03	712	JSUR57	167	446	9
061509	12:03	712	UR57 benefit	168	2179	benefit
061509	12:03	712	JSUR86	169	646	5
061509	12:03	712	UR86 boulevard	170	5759	boulevard
061509	12:03	712	JSLH45	171	575	4
061509	12:03	712	LH45 intellect	172	2786	intelligent
061509	12:03	712	JSLH26	173	408	6
061509	12:03	712	LH26 center	174	1589	center
061509	12:03	712	JSUR12	175	409	7
061509	12:03	712	UR12 unicorn	176	3046	unicom
061509	12:03	712	JSUR108	177	423	3
061509	12:03	712	UR108 shield	178	2211	shield
061509	12:03	712	JSUR99	179	1636	5
061509	12:03	712	UR99 branch	180	1938	branch
061509	12:03	712	JSHL29	181	2292	6
061509	12:03	712	HL29 ring	182	1183	ring
061509	12:03	712	JSHL26	183	462	7
061509	12:03	712	HL26 light	184	1698	light
061509	12:03	712	JSLH28	185	523	6
061509	12:03	712	LH28 vagrant	186	6340	vagrant
061509	12:03	712	JSHL52	187	388	3
061509	12:03	712	HL52 sand	188	1412	sand
061509	12:03	712	JSHL48	189	449	4
061509	12:03	712	HL48 airplane	190	3267	airplane
061509	12:03	712	JSUR43	191	427	5
061509	12:03	712	UR43 balloon	192	2597	balloon
061509	12:03	712	JSUR93	193	525	3
061509	12:03	712	UR93 catcher	194	1490	catcher
061509	12:03	712	JSHL20	195	464	5
061509	12:03	712	HL20 wine	196	1029	wine
061509	12:03	712	JSHL13	197	418	5
061509	12:03	712	HL13 map	198	1073	map
061509	12:03	712	JSHL12	199	398	4
061509	12:03	712	HL12 space	200	1260	space
061509	12:03	712	JSUR02	201	470	5
061509	12:03	712	UR02 comma	202	2294	coma
061509	12:03	712	JSUR48	203	466	3
061509	12:03	712	UR48 democracy	204	4611	democracy
061509	12:03	712	JSUR08	205	1382	6
061509	12:03	712	UR08 assistant	206	9479	assistant
061509	12:03	712	JSUR84	207	1164	6
061509	12:03	712	UR84 flag	208	1685	flag
061509	12:03	712	JSUR26	209	606	4
061509	12:03	712	UR26 eternity	210	5188	eternity
061509	12:03	712	JSLH52	211	1629	1
061509	12:03	712	LH52 bureau	212	3380	bureau
061509	12:03	712	JSUR44	213	474	4
061509	12:03	712	UR44 rot	214	2854	rat
061509	12:03	712	JSUR16	215	401	5
061509	12:03	712	UR16 century	216	3577	century
