date	time	subject	trialcode	trialnum	latency	response	
091107	10:53	838	JAseePR17	1	500	0	
091107	10:53	838	PR17 emerald	2	19284	oak	
091107	10:53	838	JAPR17	3	14750	7	
091107	10:53	838	JAseePR27	4	500	0	
091107	10:53	838	PR27 wheat	5	15664	child	
091107	10:53	838	JAPR27	6	5734	6	
091107	10:53	838	JAseePR07	7	500	0	
091107	10:53	838	PR07 bog	8	5827	music	
091107	10:53	838	JAPR07	9	3264	4	
091107	10:53	838	JAseePR23	10	500	0	
091107	10:53	838	PR23 companion	11	6404	chiar	
091107	10:53	838	JAPR23	12	3058	2	
091107	10:53	838	JAseePR06	13	500	0	
091107	10:53	838	PR06 beast	14	5038	beast	
091107	10:53	838	JAPR06	15	2995	5	
091107	10:53	838	JAseePR09	16	500	0	
091107	10:53	838	PR09 album	17	7910	ring	
091107	10:53	838	JAPR09	18	11886	6	
091107	10:53	838	JAseePR21	19	500	0	
091107	10:53	838	PR21 innocence	20	9474	flight	
091107	10:53	838	JAPR21	21	11637	7	
091107	10:53	838	JAseePR01	22	500	0	
091107	10:53	838	PR01 cash	23	6474	almond	
091107	10:53	838	JAPR01	24	4189	8	
091107	10:53	838	JAseePR11	25	500	0	
091107	10:53	838	PR11 ounce	26	4761	breeze	
091107	10:53	838	JAPR11	27	6927	9	
091107	10:53	838	JAseePR25	28	500	0	
091107	10:53	838	PR25 saliva	29	5132	cracker	
091107	10:53	838	JAPR25	30	7006	6	
091107	10:53	838	JAseePR30	31	500	0	
091107	10:53	838	PR30 maiden	32	9305	majority	
091107	10:53	838	JAPR30	33	4053	7	
091107	10:53	838	JAseePR03	34	500	0	
091107	10:53	838	PR03 acre	35	20317	acorn	
091107	10:53	838	JAPR03	36	11078	1	
091107	10:53	838	JAseePR13	37	500	0	
091107	10:53	838	PR13 ambition	38	10135	amature	
091107	10:53	838	JAPR13	39	7927	1	
091107	10:53	838	JAseePR04	40	500	0	
091107	10:53	838	PR04 diaper	41	5619	earring	
091107	10:53	838	JAPR04	42	11593	10	
091107	10:53	838	JAseeUR53	1	500	0	
091107	10:53	838	UR53 hell	2	7461	sew	
091107	10:53	838	JAUR53	3	11636	8	
091107	10:53	838	JAseeUR13	4	500	0	
091107	10:53	838	UR13 almanac	5	8738	alligator	
091107	10:53	838	JAUR13	6	8738	1	
091107	10:53	838	JAseeHL07	7	500	0	
091107	10:53	838	HL07 king	8	3023	king	
091107	10:53	838	JAHL07	9	3556	2	
091107	10:53	838	JAseeLH05	10	500	0	
091107	10:53	838	LH05 chain	11	6672	stick	
091107	10:53	838	JALH05	12	4758	3	
091107	10:53	838	JAseeLH02	13	500	0	
091107	10:53	838	LH02 harm	14	6483	crash	
091107	10:53	838	JALH02	15	3657	4	
091107	10:53	838	JAseeUR64	16	500	0	
091107	10:53	838	UR64 fist	17	5419	store	
091107	10:53	838	JAUR64	18	4217	4	
091107	10:53	838	JAseeUR32	19	500	0	
091107	10:53	838	UR32 navigator	20	3767	farm	
091107	10:53	838	JAUR32	21	3063	6	
091107	10:53	838	JAseeLH50	22	500	0	
091107	10:53	838	LH50 measure	23	5175	measure	
091107	10:53	838	JALH50	24	4784	4	
091107	10:53	838	JAseeLH27	25	500	0	
091107	10:53	838	LH27 condition	26	6263	average	
091107	10:53	838	JALH27	27	3826	7	
091107	10:53	838	JAseeHL17	28	500	0	
091107	10:53	838	HL17 soap	29	3548	soap	
091107	10:53	838	JAHL17	30	2474	4	
091107	10:53	838	JAseeUR74	31	500	0	
091107	10:53	838	UR74 suitcase	32	5318	morning	
091107	10:53	838	JAUR74	33	3386	8	
091107	10:53	838	JAseeHL36	34	500	0	
091107	10:53	838	HL36 football	35	3620	football	
091107	10:53	838	JAHL36	36	3140	1	
091107	10:53	838	JAseeLH20	37	500	0	
091107	10:53	838	LH20 violation	38	6783	ally	
091107	10:53	838	JALH20	39	5751	5	
091107	10:53	838	JAseeLH54	40	500	0	
091107	10:53	838	LH54 limit	41	7929	distance	
091107	10:53	838	JALH54	42	2443	5	
091107	10:53	838	JAseeLH51	43	500	0	
091107	10:53	838	LH51 exit	44	11517	plug	
091107	10:53	838	JALH51	45	3212	3	
091107	10:53	838	JAseeUR35	46	500	0	
091107	10:53	838	UR35 cause	47	4937	dark	
091107	10:53	838	JAUR35	48	2718	1	
091107	10:53	838	JAseeLH19	49	500	0	
091107	10:53	838	LH19 snob	50	13923	kleenex	
091107	10:53	838	JALH19	51	3633	3	
091107	10:53	838	JAseeHL51	52	500	0	
091107	10:53	838	HL51 color	53	2793	kids	
091107	10:53	838	JAHL51	54	2425	1	
091107	10:53	838	JAseeHL47	55	500	0	
091107	10:53	838	HL47 horse	56	3210	horse	
091107	10:53	838	JAHL47	57	2050	1	
091107	10:53	838	JAseeUR45	58	500	0	
091107	10:53	838	UR45 bridge	59	3746	alter	
091107	10:53	838	JAUR45	60	3580	2	
091107	10:53	838	JAseeUR69	61	500	0	
091107	10:53	838	UR69 flashlight	62	29916	cherry	
091107	10:53	838	JAUR69	63	2580	5	
091107	10:53	838	JAseeUR76	64	500	0	
091107	10:53	838	UR76 dignity	65	5558	math	
091107	10:53	838	JAUR76	66	2833	8	
091107	10:53	838	JAseeLH24	67	500	0	
091107	10:53	838	LH24 feeling	68	4653	bible	
091107	10:53	838	JALH24	69	2721	5	
091107	10:53	838	JAseeHL53	70	500	0	
091107	10:53	838	HL53 fish	71	5055	fish	
091107	10:53	838	JAHL53	72	9524	1	
091107	10:53	838	JAseeUR55	73	500	0	
091107	10:53	838	UR55 bargain	74	12046	water	
091107	10:53	838	JAUR55	75	8184	3	
091107	10:53	838	JAseeUR50	76	500	0	
091107	10:53	838	UR50 crane	77	11387	running	
091107	10:53	838	JAUR50	78	2300	5	
091107	10:53	838	JAseeHL43	79	500	0	
091107	10:53	838	HL43 money	80	2958	money	
091107	10:53	838	JAHL43	81	1770	1	
091107	10:53	838	JAseeLH11	82	500	0	
091107	10:53	838	LH11 cancer	83	5278	beach	
091107	10:53	838	JALH11	84	2423	3	
091107	10:53	838	JAseeUR77	85	500	0	
091107	10:53	838	UR77 uncle	86	5729	class	
091107	10:53	838	JAUR77	87	4011	9	
091107	10:53	838	JAseeUR27	88	500	0	
091107	10:53	838	UR27 consequence	89	10586	good	
091107	10:53	838	JAUR27	90	3691	3	
091107	10:53	838	JAseeUR68	91	500	0	
091107	10:53	838	UR68 fatigue	92	5383	sink	
091107	10:53	838	JAUR68	93	2507	1	
091107	10:53	838	JAseeUR22	94	500	0	
091107	10:53	838	UR22 thesaurus	95	5378	runner	
091107	10:53	838	JAUR22	96	6236	4	
091107	10:53	838	JAseeUR07	97	500	0	
091107	10:53	838	UR07 gathering	98	3185	wound	
091107	10:53	838	JAUR07	99	2623	1	
091107	10:53	838	JAseeUR95	100	500	0	
091107	10:53	838	UR95 fool	101	2702	road	
091107	10:53	838	JAUR95	102	4255	2	
091107	10:53	838	JAseeUR63	103	500	0	
091107	10:53	838	UR63 alley	104	14170	dust	
091107	10:53	838	JAUR63	105	4023	2	
091107	10:53	838	JAseeUR06	106	500	0	
091107	10:53	838	UR06 cello	107	5736	temperature	
091107	10:53	838	JAUR06	108	2391	6	
091107	10:53	838	JAseeHL34	109	500	0	
091107	10:53	838	HL34 hunger	110	7861	plague	
091107	10:53	838	JAHL34	111	3419	2	
091107	10:53	838	JAseeUR66	112	500	0	
091107	10:53	838	UR66 chief	113	8845	spicy	
091107	10:53	838	JAUR66	114	4567	3	
091107	10:53	838	JAseeUR67	115	500	0	
091107	10:53	838	UR67 producer	116	5260	means	
091107	10:53	838	JAUR67	117	2375	3	
091107	10:53	838	JAseeUR36	118	500	0	
091107	10:53	838	UR36 denim	119	7744	nature	
091107	10:53	838	JAUR36	120	2463	2	
091107	10:53	838	JAseeUR34	121	500	0	
091107	10:53	838	UR34 charity	122	5785	smart	
091107	10:53	838	JAUR34	123	2599	2	
091107	10:53	838	JAseeLH14	124	500	0	
091107	10:53	838	LH14 note	125	4198	common	
091107	10:53	838	JALH14	126	823	1	
091107	10:53	838	JAseeHL50	127	500	0	
091107	10:53	838	HL50 doctor	128	3648	doctor	
091107	10:53	838	JAHL50	129	1904	1	
091107	10:53	838	JAseeLH03	130	500	0	
091107	10:53	838	LH03 yard	131	8427	raquet	
091107	10:53	838	JALH03	132	3022	2	
091107	10:53	838	JAseeLH22	133	500	0	
091107	10:53	838	LH22 crowd	134	7270	space	
091107	10:53	838	JALH22	135	2279	2	
091107	10:53	838	JAseeUR46	136	500	0	
091107	10:53	838	UR46 content	137	2941	beer	
091107	10:53	838	JAUR46	138	3311	3	
091107	10:53	838	JAseeUR75	139	500	0	
091107	10:53	838	UR75 awe	140	2802	murder	
091107	10:53	838	JAUR75	141	1208	5	
091107	10:53	838	JAseeUR78	142	500	0	
091107	10:53	838	UR78 blender	143	13905	volcano	
091107	10:53	838	JAUR78	144	1048	4	
091107	10:53	838	JAseeHL39	145	500	0	
091107	10:53	838	HL39 book	146	2122	book	
091107	10:53	838	JAHL39	147	2500	1	
091107	10:53	838	JAseeUR62	148	500	0	
091107	10:53	838	UR62 chemistry	149	8197	chemistry	
091107	10:53	838	JAUR62	150	2049	1	
091107	10:53	838	JAseeLH04	151	500	0	
091107	10:53	838	LH04 grade	152	3251	ink	
091107	10:53	838	JALH04	153	3585	3	
091107	10:53	838	JAseeHL03	154	500	0	
091107	10:53	838	HL03 cigarette	155	7315	cigarette	
091107	10:53	838	JAHL03	156	1868	1	
091107	10:53	838	JAseeUR20	157	500	0	
091107	10:53	838	UR20 climax	158	3053	sapce	
091107	10:53	838	JAUR20	159	3818	5	
091107	10:53	838	JAseeLH23	160	500	0	
091107	10:53	838	LH23 possibility	161	6331	possibilities	
091107	10:53	838	JALH23	162	2648	3	
091107	10:53	838	JAseeHL09	163	500	0	
091107	10:53	838	HL09 chalk	164	3347	chalk	
091107	10:53	838	JAHL09	165	2037	1	
091107	10:53	838	JAseeLH01	166	500	0	
091107	10:53	838	LH01 brain	167	4041	school	
091107	10:53	838	JALH01	168	7718	6	
091107	10:53	838	JAseeHL42	169	500	0	
091107	10:53	838	HL42 pie	170	7000	sandwhich	
091107	10:53	838	JAHL42	171	3548	6	
091107	10:53	838	JAseeLH43	172	500	0	
091107	10:53	838	LH43 noise	173	3259	sky	
091107	10:53	838	JALH43	174	3197	4	
091107	10:53	838	JAseeLH30	175	500	0	
091107	10:53	838	LH30 assignment	176	8295	goal	
091107	10:53	838	JALH30	177	3894	9	
091107	10:53	838	JAseeLH53	178	500	0	
091107	10:53	838	LH53 core	179	4644	word	
091107	10:53	838	JALH53	180	2184	7	
091107	10:53	838	JAseeUR47	181	500	0	
091107	10:53	838	UR47 chimpanzee	182	4754	cement	
091107	10:53	838	JAUR47	183	3150	7	
091107	10:53	838	JAseeUR42	184	500	0	
091107	10:53	838	UR42 sergeant	185	9757	waiter	
091107	10:53	838	JAUR42	186	8046	4	
091107	10:53	838	JAseeUR01	187	500	0	
091107	10:53	838	UR01 file	188	3191	file	
091107	10:53	838	JAUR01	189	1463	1	
091107	10:53	838	JAseeUR87	190	500	0	
091107	10:53	838	UR87 duty	191	3481	santa	
091107	10:53	838	JAUR87	192	2702	2	
091107	10:53	838	JAseeHL24	193	500	0	
091107	10:53	838	HL24 eye	194	3360	farm	
091107	10:53	838	JAHL24	195	3808	7	
091107	10:53	838	JAseeUR58	196	500	0	
091107	10:53	838	UR58 answer	197	4315	fracture	
091107	10:53	838	JAUR58	198	3846	4	
091107	10:53	838	JAseeHL41	199	500	0	
091107	10:53	838	HL41 hand	200	5168	coat	
091107	10:53	838	JAHL41	201	2416	7	
091107	10:53	838	JAseeUR54	202	500	0	
091107	10:53	838	UR54 steam	203	3288	music	
091107	10:53	838	JAUR54	204	1813	2	
091107	10:53	838	JAseeUR82	205	500	0	
091107	10:53	838	UR82 campus	206	6830	election	
091107	10:53	838	JAUR82	207	2346	5	
091107	10:53	838	JAseeHL49	208	500	0	
091107	10:53	838	HL49 spice	209	3119	spice	
091107	10:53	838	JAHL49	210	2713	1	
091107	10:53	838	JAseeUR103	211	500	0	
091107	10:53	838	UR103 hula	212	9665	world	
091107	10:53	838	JAUR103	213	3999	3	
091107	10:53	838	JAseeUR70	214	500	0	
091107	10:53	838	UR70 pajamas	215	5970	pot	
091107	10:53	838	JAUR70	216	1565	1	
091107	10:53	838	JAseeHL23	217	500	0	
091107	10:53	838	HL23 baby	218	2746	baby	
091107	10:53	838	JAHL23	219	1010	1	
091107	10:53	838	JAseeLH09	220	500	0	
091107	10:53	838	LH09 piece	221	4206	pants	
091107	10:53	838	JALH09	222	1954	2	
091107	10:53	838	JAseeHL05	223	500	0	
091107	10:53	838	HL05 mountain	224	3609	mountain	
091107	10:53	838	JAHL05	225	1179	1	
091107	10:53	838	JAseeHL25	226	500	0	
091107	10:53	838	HL25 cut	227	2496	cut	
091107	10:53	838	JAHL25	228	1897	1	
091107	10:53	838	JAseeHL32	229	500	0	
091107	10:53	838	HL32 television	230	4559	television	
091107	10:53	838	JAHL32	231	2878	6	
091107	10:53	838	JAseeLH38	232	500	0	
091107	10:53	838	LH38 paint	233	2268	cold	
091107	10:53	838	JALH38	234	2411	2	
091107	10:53	838	JAseeUR52	235	500	0	
091107	10:53	838	UR52 knight	236	5832	tight	
091107	10:53	838	JAUR52	237	3597	8	
091107	10:53	838	JAseePR28	238	500	0	
091107	10:53	838	PR28 challenge	239	3737	danger	
091107	10:53	838	JAPR28	240	1238	4	
091107	10:53	838	JAseeLH25	241	500	0	
091107	10:53	838	LH25 track	242	1888	work	
091107	10:53	838	JALH25	243	2410	4	
091107	10:53	838	JAseeUR24	244	500	0	
091107	10:53	838	UR24 kid	245	5106	sibling	
091107	10:53	838	JAUR24	246	859	5	
091107	10:53	838	JAseeUR17	247	500	0	
091107	10:53	838	UR17 trance	248	2810	gold	
091107	10:53	838	JAUR17	249	2145	6	
091107	10:53	838	JAseeHL10	250	500	0	
091107	10:53	838	HL10 cow	251	2460	cow	
091107	10:53	838	JAHL10	252	1109	1	
091107	10:53	838	JAseeUR30	253	500	0	
091107	10:53	838	UR30 lover	254	2761	cancer	
091107	10:53	838	JAUR30	255	1679	1	
091107	10:53	838	JAseeUR14	256	500	0	
091107	10:53	838	UR14 fudge	257	2175	jail	
091107	10:53	838	JAUR14	258	1145	1	
091107	10:53	838	JAseeUR60	259	500	0	
091107	10:53	838	UR60 plaque	260	3337	sing	
091107	10:53	838	JAUR60	261	2990	1	
091107	10:53	838	JAseeHL21	262	500	0	
091107	10:53	838	HL21 empire	263	5024	hermes	
091107	10:53	838	JAHL21	264	2712	6	
091107	10:53	838	JAseeHL45	265	500	0	
091107	10:53	838	HL45 words	266	2628	words	
091107	10:53	838	JAHL45	267	897	2	
091107	10:53	838	JAseeUR107	268	500	0	
091107	10:53	838	UR107 cocaine	269	6237	spider	
091107	10:53	838	JAUR107	270	3636	4	
091107	10:53	838	JAseeLH46	271	500	0	
091107	10:53	838	LH46 submarine	272	3612	bread	
091107	10:53	838	JALH46	273	1003	5	
091107	10:53	838	JAseeUR85	274	500	0	
091107	10:53	838	UR85 stroke	275	7195	amputation	
091107	10:53	838	JAUR85	276	727	5	
091107	10:53	838	JAseeUR28	277	500	0	
091107	10:53	838	UR28 bang	278	5066	gang	
091107	10:53	838	JAUR28	279	1670	3	
091107	10:53	838	JAseeUR98	280	500	0	
091107	10:53	838	UR98 latch	281	8541	volcano	
091107	10:53	838	JAUR98	282	770	2	
091107	10:53	838	JAseeUR105	283	500	0	
091107	10:53	838	UR105 curtain	284	4438	writting	
091107	10:53	838	JAUR105	285	1038	6	
091107	10:53	838	JAseeUR65	286	500	0	
091107	10:53	838	UR65 checkers	287	2694	mouse	
091107	10:53	838	JAUR65	288	2655	4	
091107	10:53	838	JAseeUR106	289	500	0	
091107	10:53	838	UR106 eagle	290	3685	loud	
091107	10:53	838	JAUR106	291	1082	6	
091107	10:53	838	JAseeLH17	292	500	0	
091107	10:53	838	LH17 life	293	4729	elderly	
091107	10:53	838	JALH17	294	2112	4	
091107	10:53	838	JAseeUR04	295	500	0	
091107	10:53	838	UR04 marsh	296	6097	halloween	
091107	10:53	838	JAUR04	297	842	5	
091107	10:53	838	JAseeHL31	298	500	0	
091107	10:53	838	HL31 war	299	4407	war	
091107	10:53	838	JAHL31	300	791	1	
091107	10:53	838	JAseeLH07	301	500	0	
091107	10:53	838	LH07 rear	302	4153	end	
091107	10:53	838	JALH07	303	709	5	
091107	10:53	838	JAseeHL33	304	500	0	
091107	10:53	838	HL33 joke	305	2516	joke	
091107	10:53	838	JAHL33	306	1093	1	
091107	10:53	838	JAseeHL01	307	500	0	
091107	10:53	838	HL01 elephant	308	3145	elephant	
091107	10:53	838	JAHL01	309	2007	1	
091107	10:53	838	JAseeLH37	310	500	0	
091107	10:53	838	LH37 pad	311	2108	pill	
091107	10:53	838	JALH37	312	876	2	
091107	10:53	838	JAseeHL14	313	500	0	
091107	10:53	838	HL14 milk	314	2820	milk	
091107	10:53	838	JAHL14	315	626	1	
091107	10:53	838	JAseeUR96	316	500	0	
091107	10:53	838	UR96 dessert	317	6845	dream	
091107	10:53	838	JAUR96	318	1134	6	
091107	10:53	838	JAseeLH32	319	500	0	
091107	10:53	838	LH32 capacity	320	5938	tablet	
091107	10:53	838	JALH32	321	3522	9	
091107	10:53	838	JAseeUR59	322	500	0	
091107	10:53	838	UR59 copper	323	2630	paper	
091107	10:53	838	JAUR59	324	933	5	
091107	10:53	838	JAseeUR21	325	500	0	
091107	10:53	838	UR21 ore	326	3288	angels	
091107	10:53	838	JAUR21	327	2902	6	
091107	10:53	838	JSseePR26	1	500	0	
091107	10:53	838	PR26 colonel	2	7965	man	
091107	10:53	838	JSPR26	3	9665	5	
091107	10:53	838	JSseePR24	4	500	0	
091107	10:53	838	PR24 pest	5	6685	grow	
091107	10:53	838	JSPR24	6	4924	6	
091107	10:53	838	JSseePR08	7	500	0	
091107	10:53	838	PR08 beef	8	7802	sting	
091107	10:53	838	JSPR08	9	10655	9	
091107	10:53	838	JSseePR05	10	500	0	
091107	10:53	838	PR05 calf	11	8070	holiday	
091107	10:53	838	JSPR05	12	2165	8	
091107	10:53	838	JSseePR14	13	500	0	
091107	10:53	838	PR14 religion	14	2755	death	
091107	10:53	838	JSPR14	15	4658	6	
091107	10:53	838	JSseePR19	16	500	0	
091107	10:53	838	PR19 void	17	10061	promise	
091107	10:53	838	JSPR19	18	3827	3	
091107	10:53	838	JSseePR12	19	500	0	
091107	10:53	838	PR12 royalty	20	2235	king	
091107	10:53	838	JSPR12	21	3067	7	
091107	10:53	838	JSseePR02	22	500	0	
091107	10:53	838	PR02 wrinkle	23	8954	weekend	
091107	10:53	838	JSPR02	24	2063	3	
091107	10:53	838	JSseePR10	25	500	0	
091107	10:53	838	PR10 camel	26	4315	protect	
091107	10:53	838	JSPR10	27	1616	2	
091107	10:53	838	JSseePR15	28	500	0	
091107	10:53	838	PR15 depletion	29	3682	cover	
091107	10:53	838	JSPR15	30	2642	5	
091107	10:53	838	JSseePR20	31	500	0	
091107	10:53	838	PR20 advertisement	32	3526	help	
091107	10:53	838	JSPR20	33	4415	2	
091107	10:53	838	JSseePR29	34	500	0	
091107	10:53	838	PR29 mermaid	35	4838	sad	
091107	10:53	838	JSPR29	36	8450	9	
091107	10:53	838	JSseePR16	37	500	0	
091107	10:53	838	PR16 compulsion	38	4796	worry	
091107	10:53	838	JSPR16	39	8065	2	
091107	10:53	838	JSseePR22	40	500	0	
091107	10:53	838	PR22 ass	41	2990	street	
091107	10:53	838	JSPR22	42	3038	7	
091107	10:53	838	JSseePR18	43	500	0	
091107	10:53	838	PR18 clorox	44	8751	opaque	
091107	10:53	838	JSPR18	45	2908	3	
091107	10:53	838	JSseeUR33	1	500	0	
091107	10:53	838	UR33 horror	2	4718	victim	
091107	10:53	838	JSUR33	3	3723	6	
091107	10:53	838	JSseeUR41	4	500	0	
091107	10:53	838	UR41 chime	5	1568	cold	
091107	10:53	838	JSUR41	6	2900	6	
091107	10:53	838	JSseeLH06	7	500	0	
091107	10:53	838	LH06 element	8	5590	complete	
091107	10:53	838	JSLH06	9	7881	6	
091107	10:53	838	JSseeHL40	10	500	0	
091107	10:53	838	HL40 temperature	11	3566	cold	
091107	10:53	838	JSHL40	12	3184	8	
091107	10:53	838	JSseeLH10	13	500	0	
091107	10:53	838	LH10 care	14	2264	hurt	
091107	10:53	838	JSLH10	15	2938	8	
091107	10:53	838	JSseeHL16	16	500	0	
091107	10:53	838	HL16 broom	17	2803	broom	
091107	10:53	838	JSHL16	18	782	9	
091107	10:53	838	JSseeLH42	19	500	0	
091107	10:53	838	LH42 thought	20	2255	think	
091107	10:53	838	JSLH42	21	1051	6	
091107	10:53	838	JSseeLH44	22	500	0	
091107	10:53	838	LH44 vessel	23	2278	needle	
091107	10:53	838	JSLH44	24	4258	6	
091107	10:53	838	JSseeLH41	25	500	0	
091107	10:53	838	LH41 girl	26	5063	girl	
091107	10:53	838	JSLH41	27	987	6	
091107	10:53	838	JSseeHL08	28	500	0	
091107	10:53	838	HL08 math	29	2136	math	
091107	10:53	838	JSHL08	30	743	9	
091107	10:53	838	JSseeHL30	31	500	0	
091107	10:53	838	HL30 air	32	5042	agression	
091107	10:53	838	JSHL30	33	1731	8	
091107	10:53	838	JSseeLH34	34	500	0	
091107	10:53	838	LH34 panel	35	2749	judge	
091107	10:53	838	JSLH34	36	1575	6	
091107	10:53	838	JSseeHL37	37	500	0	
091107	10:53	838	HL37 thread	38	3511	sew	
091107	10:53	838	JSHL37	39	1568	8	
091107	10:53	838	JSseeUR23	40	500	0	
091107	10:53	838	UR23 abundance	41	2248	school	
091107	10:53	838	JSUR23	42	1922	8	
091107	10:53	838	JSseeUR94	43	500	0	
091107	10:53	838	UR94 bristle	44	4472	carry	
091107	10:53	838	JSUR94	45	3520	5	
091107	10:53	838	JSseeLH29	46	500	0	
091107	10:53	838	LH29 closet	47	3066	closet	
091107	10:53	838	JSLH29	48	797	5	
091107	10:53	838	JSseeUR97	49	500	0	
091107	10:53	838	UR97 banner	50	4334	food	
091107	10:53	838	JSUR97	51	1102	8	
091107	10:53	838	JSseeUR73	52	500	0	
091107	10:53	838	UR73 kite	53	2958	cry	
091107	10:53	838	JSUR73	54	878	6	
091107	10:53	838	JSseeHL15	55	500	0	
091107	10:53	838	HL15 bomb	56	5919	science	
091107	10:53	838	JSHL15	57	988	4	
091107	10:53	838	JSseeUR05	58	500	0	
091107	10:53	838	UR05 lease	59	4176	view	
091107	10:53	838	JSUR05	60	1243	4	
091107	10:53	838	JSseeLH40	61	500	0	
091107	10:53	838	LH40 field	62	2546	field	
091107	10:53	838	JSLH40	63	2559	2	
091107	10:53	838	JSseeUR09	64	500	0	
091107	10:53	838	UR09 education	65	2278	book	
091107	10:53	838	JSUR09	66	1643	8	
091107	10:53	838	JSseeHL18	67	500	0	
091107	10:53	838	HL18 paper	68	3414	new york	
091107	10:53	838	JSHL18	69	2867	8	
091107	10:53	838	JSseeUR61	70	500	0	
091107	10:53	838	UR61 suicide	71	3856	math	
091107	10:53	838	JSUR61	72	3298	2	
091107	10:53	838	JSseeLH18	73	500	0	
091107	10:53	838	LH18 edge	74	6854	boundry	
091107	10:53	838	JSLH18	75	1472	4	
091107	10:53	838	JSseeHL04	76	500	0	
091107	10:53	838	HL04 beer	77	5083	work	
091107	10:53	838	JSHL04	78	2733	8	
091107	10:53	838	JSseeUR19	79	500	0	
091107	10:53	838	UR19 bison	80	12296	strength	
091107	10:53	838	JSUR19	81	5219	2	
091107	10:53	838	JSseeLH12	82	500	0	
091107	10:53	838	LH12 addition	83	3255	power	
091107	10:53	838	JSLH12	84	3347	9	
091107	10:53	838	JSseeHL02	85	500	0	
091107	10:53	838	HL02 flower	86	2611	flower	
091107	10:53	838	JSHL02	87	1854	9	
091107	10:53	838	JSseeLH36	88	500	0	
091107	10:53	838	LH36 gang	89	5745	scurvy	
091107	10:53	838	JSLH36	90	1308	8	
091107	10:53	838	JSseeLH48	91	500	0	
091107	10:53	838	LH48 outcome	92	2655	outcome	
091107	10:53	838	JSLH48	93	1408	2	
091107	10:53	838	JSseeLH15	94	500	0	
091107	10:53	838	LH15 blessing	95	3371	blessing	
091107	10:53	838	JSLH15	96	3457	5	
091107	10:53	838	JSseeHL35	97	500	0	
091107	10:53	838	HL35 cake	98	2054	cake	
091107	10:53	838	JSHL35	99	1044	6	
091107	10:53	838	JSseeUR40	100	500	0	
091107	10:53	838	UR40 dancer	101	3108	shampoo	
091107	10:53	838	JSUR40	102	954	5	
091107	10:53	838	JSseeUR88	103	500	0	
091107	10:53	838	UR88 circus	104	4103	mexico	
091107	10:53	838	JSUR88	105	1679	9	
091107	10:53	838	JSseeUR81	106	500	0	
091107	10:53	838	UR81 acid	107	3595	work	
091107	10:53	838	JSUR81	108	1790	8	
091107	10:53	838	JSseeUR92	109	500	0	
091107	10:53	838	UR92 dart	110	3294	scared	
091107	10:53	838	JSUR92	111	2643	8	
091107	10:53	838	JSseeHL44	112	500	0	
091107	10:53	838	HL44 baseball	113	4292	baseball	
091107	10:53	838	JSHL44	114	2452	7	
091107	10:53	838	JSseeHL46	115	500	0	
091107	10:53	838	HL46 butter	116	2656	butter	
091107	10:53	838	JSHL46	117	4794	6	
091107	10:53	838	JSseeUR15	118	500	0	
091107	10:53	838	UR15 compass	119	4881	sympathy	
091107	10:53	838	JSUR15	120	562	5	
091107	10:53	838	JSseeLH35	121	500	0	
091107	10:53	838	LH35 shelter	122	3574	shelter	
091107	10:53	838	JSLH35	123	2166	6	
091107	10:53	838	JSseeUR91	124	500	0	
091107	10:53	838	UR91 anteater	125	3445	animals	
091107	10:53	838	JSUR91	126	3309	5	
091107	10:53	838	JSseeLH08	127	500	0	
091107	10:53	838	LH08 house	128	2431	house	
091107	10:53	838	JSLH08	129	850	6	
091107	10:53	838	JSseeLH21	130	500	0	
091107	10:53	838	LH21 monument	131	2204	death	
091107	10:53	838	JSLH21	132	2845	8	
091107	10:53	838	JSseeUR83	133	500	0	
091107	10:53	838	UR83 lesson	134	3313	lesson	
091107	10:53	838	JSUR83	135	2450	1	
091107	10:53	838	JSseeHL22	136	500	0	
091107	10:53	838	HL22 problem	137	4734	chaos	
091107	10:53	838	JSHL22	138	1234	5	
091107	10:53	838	JSseeLH47	139	500	0	
091107	10:53	838	LH47 detergent	140	2773	dust	
091107	10:53	838	JSLH47	141	847	4	
091107	10:53	838	JSseeUR56	142	500	0	
091107	10:53	838	UR56 antler	143	6658	fear	
091107	10:53	838	JSUR56	144	884	6	
091107	10:53	838	JSseeUR80	145	500	0	
091107	10:53	838	UR80 antique	146	3205	medicine	
091107	10:53	838	JSUR80	147	3030	9	
091107	10:53	838	JSseeUR11	148	500	0	
091107	10:53	838	UR11 foundation	149	2706	numbers	
091107	10:53	838	JSUR11	150	2151	9	
091107	10:53	838	JSseeHL11	151	500	0	
091107	10:53	838	HL11 rock	152	3525	counter	
091107	10:53	838	JSHL11	153	2186	5	
091107	10:53	838	JSseeLH16	154	500	0	
091107	10:53	838	LH16 power	155	2773	power	
091107	10:53	838	JSLH16	156	1899	5	
091107	10:53	838	JSseeUR18	157	500	0	
091107	10:53	838	UR18 relief	158	4231	vision	
091107	10:53	838	JSUR18	159	897	5	
091107	10:53	838	JSseeLH39	160	500	0	
091107	10:53	838	LH39 reward	161	3907	clean	
091107	10:53	838	JSLH39	162	1547	4	
091107	10:53	838	JSseeUR79	163	500	0	
091107	10:53	838	UR79 beetle	164	4658	beet	
091107	10:53	838	JSUR79	165	1385	6	
091107	10:53	838	JSseeUR102	166	500	0	
091107	10:53	838	UR102 velocity	167	2094	winner	
091107	10:53	838	JSUR102	168	988	5	
091107	10:53	838	JSseeUR101	169	500	0	
091107	10:53	838	UR101 beard	170	4102	country	
091107	10:53	838	JSUR101	171	1090	6	
091107	10:53	838	JSseeUR72	172	500	0	
091107	10:53	838	UR72 band	173	7683	brazil	
091107	10:53	838	JSUR72	174	737	4	
091107	10:53	838	JSseeUR51	175	500	0	
091107	10:53	838	UR51 cabbage	176	3811	new york	
091107	10:53	838	JSUR51	177	1040	4	
091107	10:53	838	JSseeHL54	178	500	0	
091107	10:53	838	HL54 indian	179	2644	indian	
091107	10:53	838	JSHL54	180	2056	6	
091107	10:53	838	JSseeUR39	181	500	0	
091107	10:53	838	UR39 faith	182	11870	fame	
091107	10:53	838	JSUR39	183	1364	4	
091107	10:53	838	JSseeUR49	184	500	0	
091107	10:53	838	UR49 casket	185	3930	attendent	
091107	10:53	838	JSUR49	186	553	4	
091107	10:53	838	JSseeLH49	187	500	0	
091107	10:53	838	LH49 kindness	188	2949	kindness	
091107	10:53	838	JSLH49	189	743	8	
091107	10:53	838	JSseeUR10	190	500	0	
091107	10:53	838	UR10 tribe	191	2589	dance	
091107	10:53	838	JSUR10	192	798	6	
091107	10:53	838	JSseeHL06	193	500	0	
091107	10:53	838	HL06 egg	194	3645	wagon	
091107	10:53	838	JSHL06	195	1202	4	
091107	10:53	838	JSseeUR71	196	500	0	
091107	10:53	838	UR71 padding	197	2012	water	
091107	10:53	838	JSUR71	198	2833	4	
091107	10:53	838	JSseeUR25	199	500	0	
091107	10:53	838	UR25 partner	200	5288	veggie	
091107	10:53	838	JSUR25	201	2375	4	
091107	10:53	838	JSseeUR03	202	500	0	
091107	10:53	838	UR03 vehicle	203	6054	bike	
091107	10:53	838	JSUR03	204	4556	8	
091107	10:53	838	JSseeHL28	205	500	0	
091107	10:53	838	HL28 bird	206	5437	metal	
091107	10:53	838	JSHL28	207	1041	4	
091107	10:53	838	JSseeUR100	208	500	0	
091107	10:53	838	UR100 comb	209	5118	lock	
091107	10:53	838	JSUR100	210	1521	9	
091107	10:53	838	JSseeUR89	211	500	0	
091107	10:53	838	UR89 crow	212	2391	road	
091107	10:53	838	JSUR89	213	1187	1	
091107	10:53	838	JSseeUR29	214	500	0	
091107	10:53	838	UR29 patrol	215	8961	chess	
091107	10:53	838	JSUR29	216	3556	2	
091107	10:53	838	JSseeHL38	217	500	0	
091107	10:53	838	HL38 boat	218	2399	boat	
091107	10:53	838	JSHL38	219	1333	9	
091107	10:53	838	JSseeLH33	220	500	0	
091107	10:53	838	LH33 fable	221	1814	tale	
091107	10:53	838	JSLH33	222	1024	5	
091107	10:53	838	JSseeUR31	223	500	0	
091107	10:53	838	UR31 diameter	224	1994	hands	
091107	10:53	838	JSUR31	225	1033	5	
091107	10:53	838	JSseeHL19	226	500	0	
091107	10:53	838	HL19 car	227	1594	car	
091107	10:53	838	JSHL19	228	1070	8	
091107	10:53	838	JSseeLH31	229	500	0	
091107	10:53	838	LH31 self	230	4786	head	
091107	10:53	838	JSLH31	231	1062	4	
091107	10:53	838	JSseeLH13	232	500	0	
091107	10:53	838	LH13 crease	233	2255	sew	
091107	10:53	838	JSLH13	234	963	5	
091107	10:53	838	JSseeUR37	235	500	0	
091107	10:53	838	UR37 cloth	236	1513	white	
091107	10:53	838	JSUR37	237	2344	3	
091107	10:53	838	JSseeHL27	238	500	0	
091107	10:53	838	HL27 rain	239	4116	rain	
091107	10:53	838	JSHL27	240	1463	5	
091107	10:53	838	JSseeUR104	241	500	0	
091107	10:53	838	UR104 aardvark	242	1853	kids	
091107	10:53	838	JSUR104	243	1201	6	
091107	10:53	838	JSseeUR38	244	500	0	
091107	10:53	838	UR38 energy	245	2566	guns	
091107	10:53	838	JSUR38	246	4348	9	
091107	10:53	838	JSseeUR90	247	500	0	
091107	10:53	838	UR90 sailing	248	1903	pay	
091107	10:53	838	JSUR90	249	561	5	
091107	10:53	838	JSseeUR57	250	500	0	
091107	10:53	838	UR57 benefit	251	6175	muffin	
091107	10:53	838	JSUR57	252	761	6	
091107	10:53	838	JSseeUR86	253	500	0	
091107	10:53	838	UR86 boulevard	254	4138	rock	
091107	10:53	838	JSUR86	255	568	6	
091107	10:53	838	JSseeLH45	256	500	0	
091107	10:53	838	LH45 intellect	257	3246	words	
091107	10:53	838	JSLH45	258	751	4	
091107	10:53	838	JSseeLH26	259	500	0	
091107	10:53	838	LH26 center	260	3624	space	
091107	10:53	838	JSLH26	261	636	5	
091107	10:53	838	JSseeUR12	262	500	0	
091107	10:53	838	UR12 unicorn	263	3302	knive	
091107	10:53	838	JSUR12	264	3404	3	
091107	10:53	838	JSseeUR108	265	500	0	
091107	10:53	838	UR108 shield	266	2328	string	
091107	10:53	838	JSUR108	267	891	6	
091107	10:53	838	JSseeUR99	268	500	0	
091107	10:53	838	UR99 branch	269	1523	head	
091107	10:53	838	JSUR99	270	716	2	
091107	10:53	838	JSseeHL29	271	500	0	
091107	10:53	838	HL29 ring	272	1339	ring	
091107	10:53	838	JSHL29	273	1626	3	
091107	10:53	838	JSseeHL26	274	500	0	
091107	10:53	838	HL26 light	275	2931	torture	
091107	10:53	838	JSHL26	276	1143	2	
091107	10:53	838	JSseeLH28	277	500	0	
091107	10:53	838	LH28 vagrant	278	2469	street	
091107	10:53	838	JSLH28	279	2139	4	
091107	10:53	838	JSseeHL52	280	500	0	
091107	10:53	838	HL52 sand	281	3109	sand	
091107	10:53	838	JSHL52	282	4194	4	
091107	10:53	838	JSseeHL48	283	500	0	
091107	10:53	838	HL48 airplane	284	4931	airplane	
091107	10:53	838	JSHL48	285	1019	5	
091107	10:53	838	JSseeUR43	286	500	0	
091107	10:53	838	UR43 balloon	287	2432	box	
091107	10:53	838	JSUR43	288	2737	3	
091107	10:53	838	JSseeUR93	289	500	0	
091107	10:53	838	UR93 catcher	290	2075	king	
091107	10:53	838	JSUR93	291	2018	8	
091107	10:53	838	JSseeHL20	292	500	0	
091107	10:53	838	HL20 wine	293	2749	nail	
091107	10:53	838	JSHL20	294	3934	2	
091107	10:53	838	JSseeHL13	295	500	0	
091107	10:53	838	HL13 map	296	2181	globe	
091107	10:53	838	JSHL13	297	1624	5	
091107	10:53	838	JSseeHL12	298	500	0	
091107	10:53	838	HL12 space	299	3380	rocket	
091107	10:53	838	JSHL12	300	758	8	
091107	10:53	838	JSseeUR02	301	500	0	
091107	10:53	838	UR02 comma	302	4946	space	
091107	10:53	838	JSUR02	303	718	8	
091107	10:53	838	JSseeUR48	304	500	0	
091107	10:53	838	UR48 democracy	305	6103	donkey	
091107	10:53	838	JSUR48	306	730	4	
091107	10:53	838	JSseeUR08	307	500	0	
091107	10:53	838	UR08 assistant	308	2548	blue	
091107	10:53	838	JSUR08	309	923	7	
091107	10:53	838	JSseeUR84	310	500	0	
091107	10:53	838	UR84 flag	311	2520	burn	
091107	10:53	838	JSUR84	312	804	5	
091107	10:53	838	JSseeUR26	313	500	0	
091107	10:53	838	UR26 eternity	314	4516	person	
091107	10:53	838	JSUR26	315	3719	5	
091107	10:53	838	JSseeLH52	316	500	0	
091107	10:53	838	LH52 bureau	317	2004	model	
091107	10:53	838	JSLH52	318	1089	4	
091107	10:53	838	JSseeUR44	319	500	0	
091107	10:53	838	UR44 rot	320	1106	ring	
091107	10:53	838	JSUR44	321	6108	2	
091107	10:53	838	JSseeUR16	322	500	0	
091107	10:53	838	UR16 century	323	2366	money	
091107	10:53	838	JSUR16	324	3624	9	
date	time	subject	trialcode	trialnum	latency	response	
091107	10:55	837	JAPR26	1	16821	1	
091107	10:55	837	PR26 colonel	2	4881		
091107	10:55	837	JAPR24	3	13532	3	
091107	10:55	837	PR24 pest	4	28802		
091107	10:55	837	JAPR08	5	6309	2	
091107	10:55	837	PR08 beef	6	9155	bf398743&8	
091107	10:55	837	JAPR05	7	7244	5	
091107	10:55	837	PR05 calf	8	55658		
091107	10:55	837	JAPR14	9	8920	2	
091107	10:55	837	PR14 religion	10	19932	ckgjhsdhg	
091107	10:55	837	JAPR19	11	12721	3	
091107	10:55	837	PR19 void	12	3241	dfklutgfio	
091107	10:55	837	JAPR12	13	34755	2	
091107	10:55	837	PR12 royalty	14	8257	kurtroyal	
091107	10:55	837	JAPR02	15	19866	4	
091107	10:55	837	PR02 wrinkle	16	7050	wrin23o875kle	
091107	10:55	837	JAPR10	17	11711	2	
091107	10:55	837	PR10 camel	18	4165	937845erh	
091107	10:55	837	JAPR15	19	4590	1	
091107	10:55	837	PR15 depletion	20	7858	deple	
091107	10:55	837	JAPR20	21	22613	2	
091107	10:55	837	PR20 advertisement	22	9187	1234adv	
091107	10:55	837	JAPR29	23	14836	3	
091107	10:55	837	PR29 mermaid	24	4745	knd68957	
091107	10:55	837	JAPR16	25	6252	1	
091107	10:55	837	PR16 compulsion	26	3245	nrd57439	
091107	10:55	837	JAPR22	27	4673	4	
091107	10:55	837	PR22 ass	28	2859	djhrt8945	
091107	10:55	837	JSseeUR42	1	500	0	
091107	10:55	837	UR42 sergeant	2	7135	jh93457493	
091107	10:55	837	JSUR42	3	14165	5	
091107	10:55	837	JSseeUR52	4	500	0	
091107	10:55	837	UR52 knight	5	9613	khret80er7	
091107	10:55	837	JSUR52	6	6681	5	
091107	10:55	837	JSseeLH01	7	500	0	
091107	10:55	837	LH01 brain	8	33059	brain	
091107	10:55	837	JSLH01	9	5892	6	
091107	10:55	837	JSseeHL45	10	500	0	
091107	10:55	837	HL45 words	11	10061	words	
091107	10:55	837	JSHL45	12	4901	5	
091107	10:55	837	JSseeLH03	13	500	0	
091107	10:55	837	LH03 yard	14	4946	yard	
091107	10:55	837	JSLH03	15	5517	6	
091107	10:55	837	JSseeHL21	16	500	0	
091107	10:55	837	HL21 empire	17	3537	empire	
091107	10:55	837	JSHL21	18	6604	5	
091107	10:55	837	JSseeLH38	19	500	0	
091107	10:55	837	LH38 paint	20	5845	pant	
091107	10:55	837	JSLH38	21	9078	5	
091107	10:55	837	JSseeLH43	22	500	0	
091107	10:55	837	LH43 noise	23	2930	noise	
091107	10:55	837	JSLH43	24	6672	5	
091107	10:55	837	JSseeLH37	25	500	0	
091107	10:55	837	LH37 pad	26	2985	pain	
091107	10:55	837	JSLH37	27	3299	5	
091107	10:55	837	JSseeHL07	28	500	0	
091107	10:55	837	HL07 king	29	3031	king	
091107	10:55	837	JSHL07	30	6067	4	
091107	10:55	837	JSseeHL39	31	500	0	
091107	10:55	837	HL39 book	32	2670	book	
091107	10:55	837	JSHL39	33	6328	4	
091107	10:55	837	JSseeLH24	34	500	0	
091107	10:55	837	LH24 feeling	35	3958	feel	
091107	10:55	837	JSLH24	36	4312	6	
091107	10:55	837	JSseeHL42	37	500	0	
091107	10:55	837	HL42 pie	38	3128	pie	
091107	10:55	837	JSHL42	39	4467	6	
091107	10:55	837	JSseeUR30	40	500	0	
091107	10:55	837	UR30 lover	41	6551	love	
091107	10:55	837	JSUR30	42	4521	5	
091107	10:55	837	JSseeUR95	43	500	0	
091107	10:55	837	UR95 fool	44	4507	fool	
091107	10:55	837	JSUR95	45	4859	6	
091107	10:55	837	JSseeLH20	46	500	0	
091107	10:55	837	LH20 violation	47	8131	vain	
091107	10:55	837	JSLH20	48	6102	6	
091107	10:55	837	JSseeUR96	49	500	0	
091107	10:55	837	UR96 dessert	50	7895	dest	
091107	10:55	837	JSUR96	51	5601	6	
091107	10:55	837	JSseeUR66	52	500	0	
091107	10:55	837	UR66 chief	53	13114	chief	
091107	10:55	837	JSUR66	54	3390	4	
091107	10:55	837	JSseeHL17	55	500	0	
091107	10:55	837	HL17 soap	56	2848	soap	
091107	10:55	837	JSHL17	57	3435	5	
091107	10:55	837	JSseeUR06	58	500	0	
091107	10:55	837	UR06 cello	59	6000	cels	
091107	10:55	837	JSUR06	60	8652	5	
091107	10:55	837	JSseeLH32	61	500	0	
091107	10:55	837	LH32 capacity	62	6995	capacity	
091107	10:55	837	JSLH32	63	8493	5	
091107	10:55	837	JSseeUR103	64	500	0	
091107	10:55	837	UR103 hula	65	6902	laugh	
091107	10:55	837	JSUR103	66	4276	6	
091107	10:55	837	JSseeHL23	67	500	0	
091107	10:55	837	HL23 baby	68	4057	cubby	
091107	10:55	837	JSHL23	69	8477	7	
091107	10:55	837	JSseeUR63	70	500	0	
091107	10:55	837	UR63 alley	71	5643	alley	
091107	10:55	837	JSUR63	72	7491	5	
091107	10:55	837	JSseeLH11	73	500	0	
091107	10:55	837	LH11 cancer	74	4156	car	
091107	10:55	837	JSLH11	75	5341	5	
091107	10:55	837	JSseeHL03	76	500	0	
091107	10:55	837	HL03 cigarette	77	4417	cigarette	
091107	10:55	837	JSHL03	78	13544	5	
091107	10:55	837	JSseeUR28	79	500	0	
091107	10:55	837	UR28 bang	80	4612	bang	
091107	10:55	837	JSUR28	81	2583	5	
091107	10:55	837	JSseeLH04	82	500	0	
091107	10:55	837	LH04 grade	83	10147	grad	
091107	10:55	837	JSLH04	84	3719	6	
091107	10:55	837	JSseeHL01	85	500	0	
091107	10:55	837	HL01 elephant	86	3798	elephant	
091107	10:55	837	JSHL01	87	4569	5	
091107	10:55	837	JSseeLH27	88	500	0	
091107	10:55	837	LH27 condition	89	3230	condition	
091107	10:55	837	JSLH27	90	6025	4	
091107	10:55	837	JSseeLH51	91	500	0	
091107	10:55	837	LH51 exit	92	4439	electric	
091107	10:55	837	JSLH51	93	4678	5	
091107	10:55	837	JSseeLH07	94	500	0	
091107	10:55	837	LH07 rear	95	2247	rear	
091107	10:55	837	JSLH07	96	2965	6	
091107	10:55	837	JSseeHL41	97	500	0	
091107	10:55	837	HL41 hand	98	2195	hand	
091107	10:55	837	JSHL41	99	8339	3	
091107	10:55	837	JSseeUR50	100	500	0	
091107	10:55	837	UR50 crane	101	6546	cram	
091107	10:55	837	JSUR50	102	16144	1	
091107	10:55	837	JSseeUR76	103	500	0	
091107	10:55	837	UR76 dignity	104	8214	digit	
091107	10:55	837	JSUR76	105	7534	3	
091107	10:55	837	JSseeUR69	106	500	0	
091107	10:55	837	UR69 flashlight	107	8092	flash	
091107	10:55	837	JSUR69	108	3484	2	
091107	10:55	837	JSseeUR85	109	500	0	
091107	10:55	837	UR85 stroke	110	3148	stroke	
091107	10:55	837	JSUR85	111	4115	2	
091107	10:55	837	JSseeHL47	112	500	0	
091107	10:55	837	HL47 horse	113	3519	horse	
091107	10:55	837	JSHL47	114	6486	2	
091107	10:55	837	JSseeHL49	115	500	0	
091107	10:55	837	HL49 spice	116	2740	spice	
091107	10:55	837	JSHL49	117	9059	3	
091107	10:55	837	JSseeUR22	118	500	0	
091107	10:55	837	UR22 thesaurus	119	6984	reach	
091107	10:55	837	JSUR22	120	6395	2	
091107	10:55	837	JSseeLH25	121	500	0	
091107	10:55	837	LH25 track	122	3207	track	
091107	10:55	837	JSLH25	123	5734	5	
091107	10:55	837	JSseeUR82	124	500	0	
091107	10:55	837	UR82 campus	125	4202	campus	
091107	10:55	837	JSUR82	126	5195	4	
091107	10:55	837	JSseeLH02	127	500	0	
091107	10:55	837	LH02 harm	128	2735	harm	
091107	10:55	837	JSLH02	129	7686	4	
091107	10:55	837	JSseeLH14	130	500	0	
091107	10:55	837	LH14 note	131	4345	note	
091107	10:55	837	JSLH14	132	7007	4	
091107	10:55	837	JSseeUR70	133	500	0	
091107	10:55	837	UR70 pajamas	134	6837	jam	
091107	10:55	837	JSUR70	135	2692	4	
091107	10:55	837	JSseeHL31	136	500	0	
091107	10:55	837	HL31 war	137	3527	war	
091107	10:55	837	JSHL31	138	6179	4	
091107	10:55	837	JSseeLH50	139	500	0	
091107	10:55	837	LH50 measure	140	4322	measure	
091107	10:55	837	JSLH50	141	10690	3	
091107	10:55	837	JSseeUR60	142	500	0	
091107	10:55	837	UR60 plaque	143	15510	plateau	
091107	10:55	837	JSUR60	144	6857	6	
091107	10:55	837	JSseeUR68	145	500	0	
091107	10:55	837	UR68 fatigue	146	8565	leak	
091107	10:55	837	JSUR68	147	5526	3	
091107	10:55	837	JSseeUR20	148	500	0	
091107	10:55	837	UR20 climax	149	4443	climax	
091107	10:55	837	JSUR20	150	10148	5	
091107	10:55	837	JSseeHL09	151	500	0	
091107	10:55	837	HL09 chalk	152	3193	chalk	
091107	10:55	837	JSHL09	153	13384	6	
091107	10:55	837	JSseeLH09	154	500	0	
091107	10:55	837	LH09 piece	155	3933	piece	
091107	10:55	837	JSLH09	156	3264	4	
091107	10:55	837	JSseeUR27	157	500	0	
091107	10:55	837	UR27 consequence	158	7232	consequence	
091107	10:55	837	JSUR27	159	13972	3	
091107	10:55	837	JSseeLH30	160	500	0	
091107	10:55	837	LH30 assignment	161	4211	assignment	
091107	10:55	837	JSLH30	162	2743	5	
091107	10:55	837	JSseeUR67	163	500	0	
091107	10:55	837	UR67 producer	164	7494	produce	
091107	10:55	837	JSUR67	165	2652	1	
091107	10:55	837	JSseeUR13	166	500	0	
091107	10:55	837	UR13 almanac	167	10088	alm	
091107	10:55	837	JSUR13	168	4883	5	
091107	10:55	837	JSseeUR107	169	500	0	
091107	10:55	837	UR107 cocaine	170	13600	coi	
091107	10:55	837	JSUR107	171	3650	6	
091107	10:55	837	JSseeUR65	172	500	0	
091107	10:55	837	UR65 checkers	173	23959	check	
091107	10:55	837	JSUR65	174	3723	5	
091107	10:55	837	JSseeUR59	175	500	0	
091107	10:55	837	UR59 copper	176	4677	copper	
091107	10:55	837	JSUR59	177	2617	6	
091107	10:55	837	JSseeHL53	178	500	0	
091107	10:55	837	HL53 fish	179	2467	fish	
091107	10:55	837	JSHL53	180	2386	5	
091107	10:55	837	JSseeUR47	181	500	0	
091107	10:55	837	UR47 chimpanzee	182	8378	chimp	
091107	10:55	837	JSUR47	183	4739	5	
091107	10:55	837	JSseeUR58	184	500	0	
091107	10:55	837	UR58 answer	185	7449	answer	
091107	10:55	837	JSUR58	186	6910	5	
091107	10:55	837	JSseeLH53	187	500	0	
091107	10:55	837	LH53 core	188	2446	core	
091107	10:55	837	JSLH53	189	3188	5	
091107	10:55	837	JSseeUR105	190	500	0	
091107	10:55	837	UR105 curtain	191	4582	curt	
091107	10:55	837	JSUR105	192	4665	1	
091107	10:55	837	JSseeHL05	193	500	0	
091107	10:55	837	HL05 mountain	194	3159	mountain	
091107	10:55	837	JSHL05	195	3263	4	
091107	10:55	837	JSseeUR64	196	500	0	
091107	10:55	837	UR64 fist	197	2824	fist	
091107	10:55	837	JSUR64	198	4262	3	
091107	10:55	837	JSseeUR32	199	500	0	
091107	10:55	837	UR32 navigator	200	4914	yarn	
091107	10:55	837	JSUR32	201	8448	3	
091107	10:55	837	JSseeUR04	202	500	0	
091107	10:55	837	UR04 marsh	203	3516	mask	
091107	10:55	837	JSUR04	204	12164	5	
091107	10:55	837	JSseeHL34	205	500	0	
091107	10:55	837	HL34 hunger	206	3001	hunger	
091107	10:55	837	JSHL34	207	4623	5	
091107	10:55	837	JSseeUR106	208	500	0	
091107	10:55	837	UR106 eagle	209	5807	eagle	
091107	10:55	837	JSUR106	210	6590	4	
091107	10:55	837	JSseeUR77	211	500	0	
091107	10:55	837	UR77 uncle	212	7641	uncle	
091107	10:55	837	JSUR77	213	7020	5	
091107	10:55	837	JSseeUR35	214	500	0	
091107	10:55	837	UR35 cause	215	2719	cat	
091107	10:55	837	JSUR35	216	5166	3	
091107	10:55	837	JSseeHL43	217	500	0	
091107	10:55	837	HL43 money	218	3132	money	
091107	10:55	837	JSHL43	219	5229	4	
091107	10:55	837	JSseeLH23	220	500	0	
091107	10:55	837	LH23 possibility	221	16128	possibility	
091107	10:55	837	JSLH23	222	5719	4	
091107	10:55	837	JSseeUR36	223	500	0	
091107	10:55	837	UR36 denim	224	7481	darn	
091107	10:55	837	JSUR36	225	5607	2	
091107	10:55	837	JSseeHL24	226	500	0	
091107	10:55	837	HL24 eye	227	2435	eye	
091107	10:55	837	JSHL24	228	6687	5	
091107	10:55	837	JSseeLH22	229	500	0	
091107	10:55	837	LH22 crowd	230	2968	crowd	
091107	10:55	837	JSLH22	231	5039	3	
091107	10:55	837	JSseeLH05	232	500	0	
091107	10:55	837	LH05 chain	233	2667	chain	
091107	10:55	837	JSLH05	234	3466	5	
091107	10:55	837	JSseeUR45	235	500	0	
091107	10:55	837	UR45 bridge	236	5822	wed	
091107	10:55	837	JSUR45	237	5870	5	
091107	10:55	837	JSseeHL33	238	500	0	
091107	10:55	837	HL33 joke	239	2631	joke	
091107	10:55	837	JSHL33	240	8965	3	
091107	10:55	837	JSseeUR14	241	500	0	
091107	10:55	837	UR14 fudge	242	6819	fudge	
091107	10:55	837	JSUR14	243	10990	4	
091107	10:55	837	JSseeUR46	244	500	0	
091107	10:55	837	UR46 content	245	3578	content	
091107	10:55	837	JSUR46	246	19503	5	
091107	10:55	837	JSseeUR78	247	500	0	
091107	10:55	837	UR78 blender	248	3276	burn	
091107	10:55	837	JSUR78	249	3156	6	
091107	10:55	837	JSseeUR62	250	500	0	
091107	10:55	837	UR62 chemistry	251	6089	chemistry	
091107	10:55	837	JSUR62	252	5053	5	
091107	10:55	837	JSseeUR75	253	500	0	
091107	10:55	837	UR75 awe	254	4759	awe	
091107	10:55	837	JSUR75	255	4006	4	
091107	10:55	837	JSseeLH46	256	500	0	
091107	10:55	837	LH46 submarine	257	6347	sub	
091107	10:55	837	JSLH46	258	4128	1	
091107	10:55	837	JSseeLH17	259	500	0	
091107	10:55	837	LH17 life	260	2561	life	
091107	10:55	837	JSLH17	261	3643	4	
091107	10:55	837	JSseeUR21	262	500	0	
091107	10:55	837	UR21 ore	263	4489	ore	
091107	10:55	837	JSUR21	264	4167	5	
091107	10:55	837	JSseeUR17	265	500	0	
091107	10:55	837	UR17 trance	266	3573	chance	
091107	10:55	837	JSUR17	267	2618	4	
091107	10:55	837	JSseeUR98	268	500	0	
091107	10:55	837	UR98 latch	269	8026	hatch	
091107	10:55	837	JSUR98	270	4516	3	
091107	10:55	837	JSseeHL36	271	500	0	
091107	10:55	837	HL36 football	272	4792	football	
091107	10:55	837	JSHL36	273	10550	3	
091107	10:55	837	JSseeHL32	274	500	0	
091107	10:55	837	HL32 television	275	5035	television	
091107	10:55	837	JSHL32	276	2373	1	
091107	10:55	837	JSseeLH19	277	500	0	
091107	10:55	837	LH19 snob	278	3839	snob	
091107	10:55	837	JSLH19	279	4110	3	
091107	10:55	837	JSseeHL51	280	500	0	
091107	10:55	837	HL51 color	281	2153	color	
091107	10:55	837	JSHL51	282	3518	4	
091107	10:55	837	JSseeHL50	283	500	0	
091107	10:55	837	HL50 doctor	284	3024	doctor	
091107	10:55	837	JSHL50	285	3751	4	
091107	10:55	837	JSseeUR53	286	500	0	
091107	10:55	837	UR53 hell	287	3136	hell	
091107	10:55	837	JSUR53	288	4426	3	
091107	10:55	837	JSseeUR87	289	500	0	
091107	10:55	837	UR87 duty	290	18435	deaf	
091107	10:55	837	JSUR87	291	6321	5	
091107	10:55	837	JSseeHL25	292	500	0	
091107	10:55	837	HL25 cut	293	3707	cut	
091107	10:55	837	JSHL25	294	4715	4	
091107	10:55	837	JSseeHL14	295	500	0	
091107	10:55	837	HL14 milk	296	2680	milk	
091107	10:55	837	JSHL14	297	4757	5	
091107	10:55	837	JSseeHL10	298	500	0	
091107	10:55	837	HL10 cow	299	5894	cow	
091107	10:55	837	JSHL10	300	3458	6	
091107	10:55	837	JSseeUR01	301	500	0	
091107	10:55	837	UR01 file	302	3455	file	
091107	10:55	837	JSUR01	303	3290	4	
091107	10:55	837	JSseeUR55	304	500	0	
091107	10:55	837	UR55 bargain	305	5879	religion	
091107	10:55	837	JSUR55	306	5918	6	
091107	10:55	837	JSseeUR07	307	500	0	
091107	10:55	837	UR07 gathering	308	9276	hurt	
091107	10:55	837	JSUR07	309	2755	6	
091107	10:55	837	JSseeUR74	310	500	0	
091107	10:55	837	UR74 suitcase	311	5573	sunset	
091107	10:55	837	JSUR74	312	6983	8	
091107	10:55	837	JSseeUR34	313	500	0	
091107	10:55	837	UR34 charity	314	8102	chair	
091107	10:55	837	JSUR34	315	2761	5	
091107	10:55	837	JSseeLH54	316	500	0	
091107	10:55	837	LH54 limit	317	3102	hint	
091107	10:55	837	JSLH54	318	1452	5	
091107	10:55	837	JSseeUR54	319	500	0	
091107	10:55	837	UR54 steam	320	5080	stem	
091107	10:55	837	JSUR54	321	2170	4	
091107	10:55	837	JSseeUR24	322	500	0	
091107	10:55	837	UR24 kid	323	1895	kid	
091107	10:55	837	JSUR24	324	3404	5	
091107	10:55	837	JAseePR26	1	500	0	
091107	10:55	837	PR26 colonel	2	6944	clog	
091107	10:55	837	JAPR26	3	6177	1	
091107	10:55	837	JAseePR24	4	500	0	
091107	10:55	837	PR24 pest	5	2438	past	
091107	10:55	837	JAPR24	6	8412	3	
091107	10:55	837	JAseePR08	7	500	0	
091107	10:55	837	PR08 beef	8	6371	bite	
091107	10:55	837	JAPR08	9	5072	3	
091107	10:55	837	JAseePR05	10	500	0	
091107	10:55	837	PR05 calf	11	9541	half	
091107	10:55	837	JAPR05	12	4050	3	
091107	10:55	837	JAseePR14	13	500	0	
091107	10:55	837	PR14 religion	14	6434	real	
091107	10:55	837	JAPR14	15	5677	2	
091107	10:55	837	JAseePR19	16	500	0	
091107	10:55	837	PR19 void	17	12183	void	
091107	10:55	837	JAPR19	18	3321	4	
091107	10:55	837	JAseePR12	19	500	0	
091107	10:55	837	PR12 royalty	20	8354	royalty	
091107	10:55	837	JAPR12	21	6087	4	
091107	10:55	837	JAseePR02	22	500	0	
091107	10:55	837	PR02 wrinkle	23	7147	write	
091107	10:55	837	JAPR02	24	8452	5	
091107	10:55	837	JAseePR10	25	500	0	
091107	10:55	837	PR10 camel	26	10056	cam	
091107	10:55	837	JAPR10	27	6291	2	
091107	10:55	837	JAseePR15	28	500	0	
091107	10:55	837	PR15 depletion	29	5662	deplete	
091107	10:55	837	JAPR15	30	2074	2	
091107	10:55	837	JAseePR20	31	500	0	
091107	10:55	837	PR20 advertisement	32	7696	chance	
091107	10:55	837	JAPR20	33	2949	3	
091107	10:55	837	JAseePR29	34	500	0	
091107	10:55	837	PR29 mermaid	35	8022	master	
091107	10:55	837	JAPR29	36	5661	2	
091107	10:55	837	JAseePR16	37	500	0	
091107	10:55	837	PR16 compulsion	38	16421	compulse	
091107	10:55	837	JAPR16	39	28955	4	
091107	10:55	837	JAseePR22	40	500	0	
091107	10:55	837	PR22 ass	41	3906	heat	
091107	10:55	837	JAPR22	42	3466	5	
091107	10:55	837	JAseeUR43	1	500	0	
091107	10:55	837	UR43 balloon	2	9034	balloon	
091107	10:55	837	JAUR43	3	13235	4	
091107	10:55	837	JAseeUR102	4	500	0	
091107	10:55	837	UR102 velocity	5	4332	victor	
091107	10:55	837	JAUR102	6	4764	3	
091107	10:55	837	JAseeHL08	7	500	0	
091107	10:55	837	HL08 math	8	2982	math	
091107	10:55	837	JAHL08	9	3635	4	
091107	10:55	837	JAseeLH13	10	500	0	
091107	10:55	837	LH13 crease	11	3621	crease	
091107	10:55	837	JALH13	12	1760	3	
091107	10:55	837	JAseeLH08	13	500	0	
091107	10:55	837	LH08 house	14	2231	house	
091107	10:55	837	JALH08	15	2357	3	
091107	10:55	837	JAseeUR71	16	500	0	
091107	10:55	837	UR71 padding	17	2487	padding	
091107	10:55	837	JAUR71	18	3273	5	
091107	10:55	837	JAseeUR25	19	500	0	
091107	10:55	837	UR25 partner	20	11697	sauce	
091107	10:55	837	JAUR25	21	4735	3	
091107	10:55	837	JAseeLH47	22	500	0	
091107	10:55	837	LH47 detergent	23	3825	detergent	
091107	10:55	837	JALH47	24	5686	5	
091107	10:55	837	JAseeLH36	25	500	0	
091107	10:55	837	LH36 gang	26	2811	gain	
091107	10:55	837	JALH36	27	3426	3	
091107	10:55	837	JAseeHL15	28	500	0	
091107	10:55	837	HL15 bomb	29	2705	bomb	
091107	10:55	837	JAHL15	30	3335	7	
091107	10:55	837	JAseeUR84	31	500	0	
091107	10:55	837	UR84 flag	32	11579	fire	
091107	10:55	837	JAUR84	33	3269	5	
091107	10:55	837	JAseeHL29	34	500	0	
091107	10:55	837	HL29 ring	35	1698	ring	
091107	10:55	837	JAHL29	36	3757	6	
091107	10:55	837	JAseeLH29	37	500	0	
091107	10:55	837	LH29 closet	38	5112	closet	
091107	10:55	837	JALH29	39	2666	6	
091107	10:55	837	JAseeLH52	40	500	0	
091107	10:55	837	LH52 bureau	41	2594	bureau	
091107	10:55	837	JALH52	42	3428	3	
091107	10:55	837	JAseeLH48	43	500	0	
091107	10:55	837	LH48 outcome	44	3435	outcome	
091107	10:55	837	JALH48	45	6690	4	
091107	10:55	837	JAseeUR29	46	500	0	
091107	10:55	837	UR29 patrol	47	3221	patrol	
091107	10:55	837	JAUR29	48	4957	1	
091107	10:55	837	JAseeLH28	49	500	0	
091107	10:55	837	LH28 vagrant	50	4416	vast	
091107	10:55	837	JALH28	51	2977	2	
091107	10:55	837	JAseeHL52	52	500	0	
091107	10:55	837	HL52 sand	53	1975	sand	
091107	10:55	837	JAHL52	54	2497	2	
091107	10:55	837	JAseeHL44	55	500	0	
091107	10:55	837	HL44 baseball	56	2465	baseball	
091107	10:55	837	JAHL44	57	3875	3	
091107	10:55	837	JAseeUR37	58	500	0	
091107	10:55	837	UR37 cloth	59	1882	cloth	
091107	10:55	837	JAUR37	60	6854	2	
091107	10:55	837	JAseeUR81	61	500	0	
091107	10:55	837	UR81 acid	62	2484	aid	
091107	10:55	837	JAUR81	63	2539	3	
091107	10:55	837	JAseeUR88	64	500	0	
091107	10:55	837	UR88 circus	65	9878	town	
091107	10:55	837	JAUR88	66	10352	4	
091107	10:55	837	JAseeLH34	67	500	0	
091107	10:55	837	LH34 panel	68	2813	panel	
091107	10:55	837	JALH34	69	3214	6	
091107	10:55	837	JAseeHL54	70	500	0	
091107	10:55	837	HL54 indian	71	2035	indian	
091107	10:55	837	JAHL54	72	2697	6	
091107	10:55	837	JAseeUR48	73	500	0	
091107	10:55	837	UR48 democracy	74	3130	democracy	
091107	10:55	837	JAUR48	75	1252	1	
091107	10:55	837	JAseeUR40	76	500	0	
091107	10:55	837	UR40 dancer	77	3246	cancer	
091107	10:55	837	JAUR40	78	1820	5	
091107	10:55	837	JAseeHL38	79	500	0	
091107	10:55	837	HL38 boat	80	2135	boat	
091107	10:55	837	JAHL38	81	2783	2	
091107	10:55	837	JAseeLH18	82	500	0	
091107	10:55	837	LH18 edge	83	3300	edge	
091107	10:55	837	JALH18	84	3935	7	
091107	10:55	837	JAseeUR89	85	500	0	
091107	10:55	837	UR89 crow	86	2965	crow	
091107	10:55	837	JAUR89	87	2468	1	
091107	10:55	837	JAseeUR18	88	500	0	
091107	10:55	837	UR18 relief	89	4754	relief	
091107	10:55	837	JAUR18	90	3483	7	
091107	10:55	837	JAseeUR80	91	500	0	
091107	10:55	837	UR80 antique	92	6493	care	
091107	10:55	837	JAUR80	93	1501	1	
091107	10:55	837	JAseeUR15	94	500	0	
091107	10:55	837	UR15 compass	95	3568	compassion	
091107	10:55	837	JAUR15	96	8657	5	
091107	10:55	837	JAseeUR08	97	500	0	
091107	10:55	837	UR08 assistant	98	7190	halp	
091107	10:55	837	JAUR08	99	6029	6	
091107	10:55	837	JAseeUR94	100	500	0	
091107	10:55	837	UR94 bristle	101	5823	bristle	
091107	10:55	837	JAUR94	102	7029	4	
091107	10:55	837	JAseeUR61	103	500	0	
091107	10:55	837	UR61 suicide	104	2703	suicide	
091107	10:55	837	JAUR61	105	5702	2	
091107	10:55	837	JAseeUR05	106	500	0	
091107	10:55	837	UR05 lease	107	3879	leaf	
091107	10:55	837	JAUR05	108	6889	3	
091107	10:55	837	JAseeHL28	109	500	0	
091107	10:55	837	HL28 bird	110	2980	bird	
091107	10:55	837	JAHL28	111	2572	5	
091107	10:55	837	JAseeUR73	112	500	0	
091107	10:55	837	UR73 kite	113	4804	kite	
091107	10:55	837	JAUR73	114	6076	5	
091107	10:55	837	JAseeUR79	115	500	0	
091107	10:55	837	UR79 beetle	116	5772	beef	
091107	10:55	837	JAUR79	117	3168	2	
091107	10:55	837	JAseeUR31	118	500	0	
091107	10:55	837	UR31 diameter	119	3910	diameter	
091107	10:55	837	JAUR31	120	2571	3	
091107	10:55	837	JAseeUR26	121	500	0	
091107	10:55	837	UR26 eternity	122	4086	ethnicity	
091107	10:55	837	JAUR26	123	2707	7	
091107	10:55	837	JAseeLH21	124	500	0	
091107	10:55	837	LH21 monument	125	5226	funeral	
091107	10:55	837	JALH21	126	2854	6	
091107	10:55	837	JAseeHL48	127	500	0	
091107	10:55	837	HL48 airplane	128	2867	airplane	
091107	10:55	837	JAHL48	129	3430	4	
091107	10:55	837	JAseeLH10	130	500	0	
091107	10:55	837	LH10 care	131	1873	care	
091107	10:55	837	JALH10	132	3115	4	
091107	10:55	837	JAseeLH31	133	500	0	
091107	10:55	837	LH31 self	134	2614	self	
091107	10:55	837	JALH31	135	2675	2	
091107	10:55	837	JAseeUR38	136	500	0	
091107	10:55	837	UR38 energy	137	2755	energy	
091107	10:55	837	JAUR38	138	4511	1	
091107	10:55	837	JAseeUR86	139	500	0	
091107	10:55	837	UR86 boulevard	140	3419	build	
091107	10:55	837	JAUR86	141	5009	2	
091107	10:55	837	JAseeUR90	142	500	0	
091107	10:55	837	UR90 sailing	143	9628	salary	
091107	10:55	837	JAUR90	144	2974	3	
091107	10:55	837	JAseeHL30	145	500	0	
091107	10:55	837	HL30 air	146	2588	air	
091107	10:55	837	JAHL30	147	4463	4	
091107	10:55	837	JAseeUR57	148	500	0	
091107	10:55	837	UR57 benefit	149	3093	benefit	
091107	10:55	837	JAUR57	150	6791	7	
091107	10:55	837	JAseeLH12	151	500	0	
091107	10:55	837	LH12 addition	152	2621	plug	
091107	10:55	837	JALH12	153	5348	4	
091107	10:55	837	JAseeHL04	154	500	0	
091107	10:55	837	HL04 beer	155	1685	beer	
091107	10:55	837	JAHL04	156	2299	5	
091107	10:55	837	JAseeUR11	157	500	0	
091107	10:55	837	UR11 foundation	158	3904	foundation	
091107	10:55	837	JAUR11	159	3777	1	
091107	10:55	837	JAseeLH33	160	500	0	
091107	10:55	837	LH33 fable	161	3154	tale	
091107	10:55	837	JALH33	162	2143	5	
091107	10:55	837	JAseeHL11	163	500	0	
091107	10:55	837	HL11 rock	164	3292	rock	
091107	10:55	837	JAHL11	165	2042	5	
091107	10:55	837	JAseeLH06	166	500	0	
091107	10:55	837	LH06 element	167	3826	element	
091107	10:55	837	JALH06	168	2348	7	
091107	10:55	837	JAseeHL37	169	500	0	
091107	10:55	837	HL37 thread	170	2340	thread	
091107	10:55	837	JAHL37	171	2334	4	
091107	10:55	837	JAseeLH44	172	500	0	
091107	10:55	837	LH44 vessel	173	2783	vessel	
091107	10:55	837	JALH44	174	1834	7	
091107	10:55	837	JAseeLH39	175	500	0	
091107	10:55	837	LH39 reward	176	3160	reward	
091107	10:55	837	JALH39	177	2700	3	
091107	10:55	837	JAseeLH49	178	500	0	
091107	10:55	837	LH49 kindness	179	4480	kindness	
091107	10:55	837	JALH49	180	8341	3	
091107	10:55	837	JAseeUR39	181	500	0	
091107	10:55	837	UR39 faith	182	1839	faith	
091107	10:55	837	JAUR39	183	4811	6	
091107	10:55	837	JAseeUR33	184	500	0	
091107	10:55	837	UR33 horror	185	1905	horror	
091107	10:55	837	JAUR33	186	2644	5	
091107	10:55	837	JAseeUR02	187	500	0	
091107	10:55	837	UR02 comma	188	2535	comer	
091107	10:55	837	JAUR02	189	3152	5	
091107	10:55	837	JAseeUR93	190	500	0	
091107	10:55	837	UR93 catcher	191	9510	cast	
091107	10:55	837	JAUR93	192	3031	3	
091107	10:55	837	JAseeHL19	193	500	0	
091107	10:55	837	HL19 car	194	1415	car	
091107	10:55	837	JAHL19	195	1574	4	
091107	10:55	837	JAseeUR49	196	500	0	
091107	10:55	837	UR49 casket	197	2507	desk	
091107	10:55	837	JAUR49	198	3676	6	
091107	10:55	837	JAseeHL35	199	500	0	
091107	10:55	837	HL35 cake	200	1597	cake	
091107	10:55	837	JAHL35	201	2048	6	
091107	10:55	837	JAseeUR44	202	500	0	
091107	10:55	837	UR44 rot	203	2701	rot	
091107	10:55	837	JAUR44	204	3280	5	
091107	10:55	837	JAseeUR91	205	500	0	
091107	10:55	837	UR91 anteater	206	2970	anthill	
091107	10:55	837	JAUR91	207	4471	2	
091107	10:55	837	JAseeHL46	208	500	0	
091107	10:55	837	HL46 butter	209	4376	butter	
091107	10:55	837	JAHL46	210	5146	2	
091107	10:55	837	JAseeUR09	211	500	0	
091107	10:55	837	UR09 education	212	3039	education	
091107	10:55	837	JAUR09	213	9195	4	
091107	10:55	837	JAseeUR83	214	500	0	
091107	10:55	837	UR83 lesson	215	1700	lesson	
091107	10:55	837	JAUR83	216	2230	3	
091107	10:55	837	JAseeHL18	217	500	0	
091107	10:55	837	HL18 paper	218	2289	paper	
091107	10:55	837	JAHL18	219	2162	5	
091107	10:55	837	JAseeLH16	220	500	0	
091107	10:55	837	LH16 power	221	7497	power	
091107	10:55	837	JALH16	222	8266	3	
091107	10:55	837	JAseeHL06	223	500	0	
091107	10:55	837	HL06 egg	224	1597	egg	
091107	10:55	837	JAHL06	225	1582	1	
091107	10:55	837	JAseeHL20	226	500	0	
091107	10:55	837	HL20 wine	227	26335	0	
date	time	subject	trialcode	trialnum	latency	response	
091107	09:58	836	JAseePR17	1	500	0	
091107	09:58	836	PR17 emerald	2	21127	tree	
091107	09:58	836	JAPR17	3	15437	1	
091107	09:58	836	JAseePR27	4	500	0	
091107	09:58	836	PR27 wheat	5	9008	marriage	
091107	09:58	836	JAPR27	6	5241	1	
091107	09:58	836	JAseePR07	7	500	0	
091107	09:58	836	PR07 bog	8	3982	music	
091107	09:58	836	JAPR07	9	2491	1	
091107	09:58	836	JAseePR23	10	500	0	
091107	09:58	836	PR23 companion	11	4595	complaint	
091107	09:58	836	JAPR23	12	9241	2	
091107	09:58	836	JAseePR06	13	500	0	
091107	09:58	836	PR06 beast	14	4858	disney	
091107	09:58	836	JAPR06	15	2516	1	
091107	09:58	836	JAseePR09	16	500	0	
091107	09:58	836	PR09 album	17	4571	blue	
091107	09:58	836	JAPR09	18	5285	1	
091107	09:58	836	JAseePR21	19	500	0	
091107	09:58	836	PR21 innocence	20	4409	increase	
091107	09:58	836	JAPR21	21	11080	1	
091107	09:58	836	JAseePR01	22	500	0	
091107	09:58	836	PR01 cash	23	2421	nut	
091107	09:58	836	JAPR01	24	6665	1	
091107	09:58	836	JAseePR11	25	500	0	
091107	09:58	836	PR11 ounce	26	3325	ounce	
091107	09:58	836	JAPR11	27	2286	1	
091107	09:58	836	JAseePR25	28	500	0	
091107	09:58	836	PR25 saliva	29	3616	salt	
091107	09:58	836	JAPR25	30	8661	1	
091107	09:58	836	JAseePR30	31	500	0	
091107	09:58	836	PR30 maiden	32	4271	major	
091107	09:58	836	JAPR30	33	14299	1	
091107	09:58	836	JAseePR03	34	500	0	
091107	09:58	836	PR03 acre	35	2234	tree	
091107	09:58	836	JAPR03	36	16088	1	
091107	09:58	836	JAseePR13	37	500	0	
091107	09:58	836	PR13 ambition	38	8008	control	
091107	09:58	836	JAPR13	39	1777	1	
091107	09:58	836	JAseePR04	40	500	0	
091107	09:58	836	PR04 diaper	41	4681	rich	
091107	09:58	836	JAPR04	42	2379	1	
091107	09:58	836	JAseeUR53	1	500	0	
091107	09:58	836	UR53 hell	2	5348	shirt	
091107	09:58	836	JAUR53	3	2419	1	
091107	09:58	836	JAseeUR13	4	500	0	
091107	09:58	836	UR13 almanac	5	2679	snap	
091107	09:58	836	JAUR13	6	1356	1	
091107	09:58	836	JAseeHL07	7	500	0	
091107	09:58	836	HL07 king	8	5684	carpet	
091107	09:58	836	JAHL07	9	2289	1	
091107	09:58	836	JAseeLH05	10	500	0	
091107	09:58	836	LH05 chain	11	5968	together	
091107	09:58	836	JALH05	12	1421	1	
091107	09:58	836	JAseeLH02	13	500	0	
091107	09:58	836	LH02 harm	14	2229	harm	
091107	09:58	836	JALH02	15	1654	1	
091107	09:58	836	JAseeUR64	16	500	0	
091107	09:58	836	UR64 fist	17	2456	nickle	
091107	09:58	836	JAUR64	18	1494	1	
091107	09:58	836	JAseeUR32	19	500	0	
091107	09:58	836	UR32 navigator	20	4558	harvest	
091107	09:58	836	JAUR32	21	1047	1	
091107	09:58	836	JAseeLH50	22	500	0	
091107	09:58	836	LH50 measure	23	3243	measure	
091107	09:58	836	JALH50	24	1369	1	
091107	09:58	836	JAseeLH27	25	500	0	
091107	09:58	836	LH27 condition	26	5839	facts	
091107	09:58	836	JALH27	27	529	1	
091107	09:58	836	JAseeHL17	28	500	0	
091107	09:58	836	HL17 soap	29	2554	soap	
091107	09:58	836	JAHL17	30	2073	4	
091107	09:58	836	JAseeUR74	31	500	0	
091107	09:58	836	UR74 suitcase	32	4979	summer	
091107	09:58	836	JAUR74	33	1754	1	
091107	09:58	836	JAseeHL36	34	500	0	
091107	09:58	836	HL36 football	35	2973	football	
091107	09:58	836	JAHL36	36	1315	5	
091107	09:58	836	JAseeLH20	37	500	0	
091107	09:58	836	LH20 violation	38	4830	violence	
091107	09:58	836	JALH20	39	1010	2	
091107	09:58	836	JAseeLH54	40	500	0	
091107	09:58	836	LH54 limit	41	2337	limit	
091107	09:58	836	JALH54	42	1121	2	
091107	09:58	836	JAseeLH51	43	500	0	
091107	09:58	836	LH51 exit	44	2315	light	
091107	09:58	836	JALH51	45	970	1	
091107	09:58	836	JAseeUR35	46	500	0	
091107	09:58	836	UR35 cause	47	2644	cat	
091107	09:58	836	JAUR35	48	454	1	
091107	09:58	836	JAseeLH19	49	500	0	
091107	09:58	836	LH19 snob	50	1746	sick	
091107	09:58	836	JALH19	51	393	1	
091107	09:58	836	JAseeHL51	52	500	0	
091107	09:58	836	HL51 color	53	2223	color	
091107	09:58	836	JAHL51	54	527	3	
091107	09:58	836	JAseeHL47	55	500	0	
091107	09:58	836	HL47 horse	56	2049	horse	
091107	09:58	836	JAHL47	57	416	5	
091107	09:58	836	JAseeUR45	58	500	0	
091107	09:58	836	UR45 bridge	59	2654	married	
091107	09:58	836	JAUR45	60	1281	2	
091107	09:58	836	JAseeUR69	61	500	0	
091107	09:58	836	UR69 flashlight	62	5297	ice cream	
091107	09:58	836	JAUR69	63	366	1	
091107	09:58	836	JAseeUR76	64	500	0	
091107	09:58	836	UR76 dignity	65	5407	math	
091107	09:58	836	JAUR76	66	363	1	
091107	09:58	836	JAseeLH24	67	500	0	
091107	09:58	836	LH24 feeling	68	5458	faith	
091107	09:58	836	JALH24	69	874	1	
091107	09:58	836	JAseeHL53	70	500	0	
091107	09:58	836	HL53 fish	71	2092	fishing	
091107	09:58	836	JAHL53	72	811	1	
091107	09:58	836	JAseeUR55	73	500	0	
091107	09:58	836	UR55 bargain	74	10692	religion	
091107	09:58	836	JAUR55	75	632	1	
091107	09:58	836	JAseeUR50	76	500	0	
091107	09:58	836	UR50 crane	77	2668	girl	
091107	09:58	836	JAUR50	78	692	1	
091107	09:58	836	JAseeHL43	79	500	0	
091107	09:58	836	HL43 money	80	2429	money	
091107	09:58	836	JAHL43	81	1245	2	
091107	09:58	836	JAseeLH11	82	500	0	
091107	09:58	836	LH11 cancer	83	3833	ocean	
091107	09:58	836	JALH11	84	384	2	
091107	09:58	836	JAseeUR77	85	500	0	
091107	09:58	836	UR77 uncle	86	3050	book	
091107	09:58	836	JAUR77	87	381	1	
091107	09:58	836	JAseeUR27	88	500	0	
091107	09:58	836	UR27 consequence	89	2485	control	
091107	09:58	836	JAUR27	90	319	1	
091107	09:58	836	JAseeUR68	91	500	0	
091107	09:58	836	UR68 fatigue	92	13285	plumer	
091107	09:58	836	JAUR68	93	269	1	
091107	09:58	836	JAseeUR22	94	500	0	
091107	09:58	836	UR22 thesaurus	95	2255	baseball	
091107	09:58	836	JAUR22	96	547	1	
091107	09:58	836	JAseeUR07	97	500	0	
091107	09:58	836	UR07 gathering	98	3736	hospital	
091107	09:58	836	JAUR07	99	332	1	
091107	09:58	836	JAseeUR95	100	500	0	
091107	09:58	836	UR95 fool	101	3009	eight	
091107	09:58	836	JAUR95	102	404	1	
091107	09:58	836	JAseeUR63	103	500	0	
091107	09:58	836	UR63 alley	104	1450	sick	
091107	09:58	836	JAUR63	105	809	1	
091107	09:58	836	JAseeUR06	106	500	0	
091107	09:58	836	UR06 cello	107	5281	high	
091107	09:58	836	JAUR06	108	295	1	
091107	09:58	836	JAseeHL34	109	500	0	
091107	09:58	836	HL34 hunger	110	2003	hunger	
091107	09:58	836	JAHL34	111	720	2	
091107	09:58	836	JAseeUR66	112	500	0	
091107	09:58	836	UR66 chief	113	7359	chief	
091107	09:58	836	JAUR66	114	1237	1	
091107	09:58	836	JAseeUR67	115	500	0	
091107	09:58	836	UR67 producer	116	5206	product	
091107	09:58	836	JAUR67	117	391	1	
091107	09:58	836	JAseeUR36	118	500	0	
091107	09:58	836	UR36 denim	119	4712	no	
091107	09:58	836	JAUR36	120	408	1	
091107	09:58	836	JAseeUR34	121	500	0	
091107	09:58	836	UR34 charity	122	5847	science	
091107	09:58	836	JAUR34	123	409	1	
091107	09:58	836	JAseeLH14	124	500	0	
091107	09:58	836	LH14 note	125	3434	payment	
091107	09:58	836	JALH14	126	718	1	
091107	09:58	836	JAseeHL50	127	500	0	
091107	09:58	836	HL50 doctor	128	4769	doctor	
091107	09:58	836	JAHL50	129	373	1	
091107	09:58	836	JAseeLH03	130	500	0	
091107	09:58	836	LH03 yard	131	2979	yard	
091107	09:58	836	JALH03	132	369	1	
091107	09:58	836	JAseeLH22	133	500	0	
091107	09:58	836	LH22 crowd	134	2445	crowd	
091107	09:58	836	JALH22	135	515	3	
091107	09:58	836	JAseeUR46	136	500	0	
091107	09:58	836	UR46 content	137	2964	water	
091107	09:58	836	JAUR46	138	303	1	
091107	09:58	836	JAseeUR75	139	500	0	
091107	09:58	836	UR75 awe	140	3135	murder	
091107	09:58	836	JAUR75	141	382	1	
091107	09:58	836	JAseeUR78	142	500	0	
091107	09:58	836	UR78 blender	143	4526	blender	
091107	09:58	836	JAUR78	144	1133	1	
091107	09:58	836	JAseeHL39	145	500	0	
091107	09:58	836	HL39 book	146	1662	book	
091107	09:58	836	JAHL39	147	806	3	
091107	09:58	836	JAseeUR62	148	500	0	
091107	09:58	836	UR62 chemistry	149	4410	chemistry	
091107	09:58	836	JAUR62	150	369	2	
091107	09:58	836	JAseeLH04	151	500	0	
091107	09:58	836	LH04 grade	152	2300	grade	
091107	09:58	836	JALH04	153	439	2	
091107	09:58	836	JAseeHL03	154	500	0	
091107	09:58	836	HL03 cigarette	155	3950	cigarette	
091107	09:58	836	JAHL03	156	1186	3	
091107	09:58	836	JAseeUR20	157	500	0	
091107	09:58	836	UR20 climax	158	2111	heat	
091107	09:58	836	JAUR20	159	1250	1	
091107	09:58	836	JAseeLH23	160	500	0	
091107	09:58	836	LH23 possibility	161	4352	possibility	
091107	09:58	836	JALH23	162	427	3	
091107	09:58	836	JAseeHL09	163	500	0	
091107	09:58	836	HL09 chalk	164	1794	chalk	
091107	09:58	836	JAHL09	165	390	5	
091107	09:58	836	JAseeLH01	166	500	0	
091107	09:58	836	LH01 brain	167	2033	brain	
091107	09:58	836	JALH01	168	435	5	
091107	09:58	836	JAseeHL42	169	500	0	
091107	09:58	836	HL42 pie	170	1795	pie	
091107	09:58	836	JAHL42	171	510	2	
091107	09:58	836	JAseeLH43	172	500	0	
091107	09:58	836	LH43 noise	173	3708	noise	
091107	09:58	836	JALH43	174	376	1	
091107	09:58	836	JAseeLH30	175	500	0	
091107	09:58	836	LH30 assignment	176	3105	assignment	
091107	09:58	836	JALH30	177	976	1	
091107	09:58	836	JAseeLH53	178	500	0	
091107	09:58	836	LH53 core	179	2018	score	
091107	09:58	836	JALH53	180	261	1	
091107	09:58	836	JAseeUR47	181	500	0	
091107	09:58	836	UR47 chimpanzee	182	2034	sweep	
091107	09:58	836	JAUR47	183	408	1	
091107	09:58	836	JAseeUR42	184	500	0	
091107	09:58	836	UR42 sergeant	185	2922	food	
091107	09:58	836	JAUR42	186	423	1	
091107	09:58	836	JAseeUR01	187	500	0	
091107	09:58	836	UR01 file	188	1825	file	
091107	09:58	836	JAUR01	189	1342	4	
091107	09:58	836	JAseeUR87	190	500	0	
091107	09:58	836	UR87 duty	191	2021	duty	
091107	09:58	836	JAUR87	192	478	1	
091107	09:58	836	JAseeHL24	193	500	0	
091107	09:58	836	HL24 eye	194	1724	messy	
091107	09:58	836	JAHL24	195	380	1	
091107	09:58	836	JAseeUR58	196	500	0	
091107	09:58	836	UR58 answer	197	4047	corner	
091107	09:58	836	JAUR58	198	443	1	
091107	09:58	836	JAseeHL41	199	500	0	
091107	09:58	836	HL41 hand	200	2156	hand	
091107	09:58	836	JAHL41	201	365	1	
091107	09:58	836	JAseeUR54	202	500	0	
091107	09:58	836	UR54 steam	203	2871	loud	
091107	09:58	836	JAUR54	204	784	1	
091107	09:58	836	JAseeUR82	205	500	0	
091107	09:58	836	UR82 campus	206	2331	control	
091107	09:58	836	JAUR82	207	1566	1	
091107	09:58	836	JAseeHL49	208	500	0	
091107	09:58	836	HL49 spice	209	2051	spice	
091107	09:58	836	JAHL49	210	357	3	
091107	09:58	836	JAseeUR103	211	500	0	
091107	09:58	836	UR103 hula	212	3632	laugh	
091107	09:58	836	JAUR103	213	376	1	
091107	09:58	836	JAseeUR70	214	500	0	
091107	09:58	836	UR70 pajamas	215	7176	clean	
091107	09:58	836	JAUR70	216	574	1	
091107	09:58	836	JAseeHL23	217	500	0	
091107	09:58	836	HL23 baby	218	1495	baby	
091107	09:58	836	JAHL23	219	541	3	
091107	09:58	836	JAseeLH09	220	500	0	
091107	09:58	836	LH09 piece	221	8571	shirt	
091107	09:58	836	JALH09	222	314	1	
091107	09:58	836	JAseeHL05	223	500	0	
091107	09:58	836	HL05 mountain	224	3550	bark	
091107	09:58	836	JAHL05	225	460	1	
091107	09:58	836	JAseeHL25	226	500	0	
091107	09:58	836	HL25 cut	227	1425	cut	
091107	09:58	836	JAHL25	228	1329	4	
091107	09:58	836	JAseeHL32	229	500	0	
091107	09:58	836	HL32 television	230	5444	television	
091107	09:58	836	JAHL32	231	544	4	
091107	09:58	836	JAseeLH38	232	500	0	
091107	09:58	836	LH38 paint	233	1636	cold	
091107	09:58	836	JALH38	234	320	1	
091107	09:58	836	JAseeUR52	235	500	0	
091107	09:58	836	UR52 knight	236	1893	boat	
091107	09:58	836	JAUR52	237	461	1	
091107	09:58	836	JAseePR28	238	500	0	
091107	09:58	836	PR28 challenge	239	2913	challenge	
091107	09:58	836	JAPR28	240	334	2	
091107	09:58	836	JAseeLH25	241	500	0	
091107	09:58	836	LH25 track	242	2146	track	
091107	09:58	836	JALH25	243	241	1	
091107	09:58	836	JAseeUR24	244	500	0	
091107	09:58	836	UR24 kid	245	2520	barbie	
091107	09:58	836	JAUR24	246	270	1	
091107	09:58	836	JAseeUR17	247	500	0	
091107	09:58	836	UR17 trance	248	3600	gold	
091107	09:58	836	JAUR17	249	216	1	
091107	09:58	836	JAseeHL10	250	500	0	
091107	09:58	836	HL10 cow	251	1986	cow	
091107	09:58	836	JAHL10	252	260	6	
091107	09:58	836	JAseeUR30	253	500	0	
091107	09:58	836	UR30 lover	254	2080	cancer	
091107	09:58	836	JAUR30	255	314	1	
091107	09:58	836	JAseeUR14	256	500	0	
091107	09:58	836	UR14 fudge	257	1868	run	
091107	09:58	836	JAUR14	258	440	1	
091107	09:58	836	JAseeUR60	259	500	0	
091107	09:58	836	UR60 plaque	260	4035	plank	
091107	09:58	836	JAUR60	261	211	1	
091107	09:58	836	JAseeHL21	262	500	0	
091107	09:58	836	HL21 empire	263	2170	empire	
091107	09:58	836	JAHL21	264	370	5	
091107	09:58	836	JAseeHL45	265	500	0	
091107	09:58	836	HL45 words	266	1754	words	
091107	09:58	836	JAHL45	267	508	6	
091107	09:58	836	JAseeUR107	268	500	0	
091107	09:58	836	UR107 cocaine	269	5504	spider	
091107	09:58	836	JAUR107	270	1068	1	
091107	09:58	836	JAseeLH46	271	500	0	
091107	09:58	836	LH46 submarine	272	3104	ham	
091107	09:58	836	JALH46	273	981	1	
091107	09:58	836	JAseeUR85	274	500	0	
091107	09:58	836	UR85 stroke	275	3997	scar	
091107	09:58	836	JAUR85	276	210	1	
091107	09:58	836	JAseeUR28	277	500	0	
091107	09:58	836	UR28 bang	278	2068	bank	
091107	09:58	836	JAUR28	279	232	4	
091107	09:58	836	JAseeUR98	280	500	0	
091107	09:58	836	UR98 latch	281	2920	volcano	
091107	09:58	836	JAUR98	282	818	1	
091107	09:58	836	JAseeUR105	283	500	0	
091107	09:58	836	UR105 curtain	284	2662	curtain	
091107	09:58	836	JAUR105	285	457	1	
091107	09:58	836	JAseeUR65	286	500	0	
091107	09:58	836	UR65 checkers	287	4930	sandwich	
091107	09:58	836	JAUR65	288	360	1	
091107	09:58	836	JAseeUR106	289	500	0	
091107	09:58	836	UR106 eagle	290	1957	wax	
091107	09:58	836	JAUR106	291	238	1	
091107	09:58	836	JAseeLH17	292	500	0	
091107	09:58	836	LH17 life	293	2069	life	
091107	09:58	836	JALH17	294	232	1	
091107	09:58	836	JAseeUR04	295	500	0	
091107	09:58	836	UR04 marsh	296	4075	monster	
091107	09:58	836	JAUR04	297	416	1	
091107	09:58	836	JAseeHL31	298	500	0	
091107	09:58	836	HL31 war	299	1330	war	
091107	09:58	836	JAHL31	300	223	5	
091107	09:58	836	JAseeLH07	301	500	0	
091107	09:58	836	LH07 rear	302	2908	rear	
091107	09:58	836	JALH07	303	306	4	
091107	09:58	836	JAseeHL33	304	500	0	
091107	09:58	836	HL33 joke	305	1778	joke	
091107	09:58	836	JAHL33	306	248	5	
091107	09:58	836	JAseeHL01	307	500	0	
091107	09:58	836	HL01 elephant	308	3310	elephant	
091107	09:58	836	JAHL01	309	236	3	
091107	09:58	836	JAseeLH37	310	500	0	
091107	09:58	836	LH37 pad	311	1379	pain	
091107	09:58	836	JALH37	312	174	5	
091107	09:58	836	JAseeHL14	313	500	0	
091107	09:58	836	HL14 milk	314	1625	milk	
091107	09:58	836	JAHL14	315	227	4	
091107	09:58	836	JAseeUR96	316	500	0	
091107	09:58	836	UR96 dessert	317	3465	sleep	
091107	09:58	836	JAUR96	318	651	3	
091107	09:58	836	JAseeLH32	319	500	0	
091107	09:58	836	LH32 capacity	320	4351	capacity	
091107	09:58	836	JALH32	321	501	2	
091107	09:58	836	JAseeUR59	322	500	0	
091107	09:58	836	UR59 copper	323	2847	cope	
091107	09:58	836	JAUR59	324	542	1	
091107	09:58	836	JAseeUR21	325	500	0	
091107	09:58	836	UR21 ore	326	6602	bible	
091107	09:58	836	JAUR21	327	271	1	
091107	09:58	836	JSPR26	1	8190	3	
091107	09:58	836	PR26 colonel	2	5636	face	
091107	09:58	836	JSPR24	3	5509	5	
091107	09:58	836	PR24 pest	4	4328	paper	
091107	09:58	836	JSPR08	5	3973	7	
091107	09:58	836	PR08 beef	6	2294	honey	
091107	09:58	836	JSPR05	7	5619	7	
091107	09:58	836	PR05 calf	8	2997	week	
091107	09:58	836	JSPR14	9	3565	5	
091107	09:58	836	PR14 religion	10	4316	releif	
091107	09:58	836	JSPR19	11	4292	9	
091107	09:58	836	PR19 void	12	3959	h	
091107	09:58	836	JSPR12	13	3435	9	
091107	09:58	836	PR12 royalty	14	3864	royalty	
091107	09:58	836	JSPR02	15	3441	5	
091107	09:58	836	PR02 wrinkle	16	5677	tuesday	
091107	09:58	836	JSPR10	17	2316	4	
091107	09:58	836	PR10 camel	18	2006	camera	
091107	09:58	836	JSPR15	19	2584	4	
091107	09:58	836	PR15 depletion	20	7131	prespire	
091107	09:58	836	JSPR20	21	2416	3	
091107	09:58	836	PR20 advertisement	22	4059	advertisement	
091107	09:58	836	JSPR29	23	3561	3	
091107	09:58	836	PR29 mermaid	24	5146	galaxy	
091107	09:58	836	JSPR16	25	3593	7	
091107	09:58	836	PR16 compulsion	26	3276	complaint	
091107	09:58	836	JSPR22	27	3318	6	
091107	09:58	836	PR22 ass	28	4342	town	
091107	09:58	836	JSPR18	29	3013	1	
091107	09:58	836	PR18 clorox	30	2600	clock	
091107	09:58	836	JSseeUR33	1	500	0	
091107	09:58	836	UR33 horror	2	5420	victum	
091107	09:58	836	JSUR33	3	6622	3	
091107	09:58	836	JSseeUR41	4	500	0	
091107	09:58	836	UR41 chime	5	2565	chime	
091107	09:58	836	JSUR41	6	1225	6	
091107	09:58	836	JSseeLH06	7	500	0	
091107	09:58	836	LH06 element	8	2272	element	
091107	09:58	836	JSLH06	9	3800	4	
091107	09:58	836	JSseeHL40	10	500	0	
091107	09:58	836	HL40 temperature	11	4849	temperature	
091107	09:58	836	JSHL40	12	2315	4	
091107	09:58	836	JSseeLH10	13	500	0	
091107	09:58	836	LH10 care	14	2854	crash	
091107	09:58	836	JSLH10	15	2686	4	
091107	09:58	836	JSseeHL16	16	500	0	
091107	09:58	836	HL16 broom	17	2117	broom	
091107	09:58	836	JSHL16	18	2407	5	
091107	09:58	836	JSseeLH42	19	500	0	
091107	09:58	836	LH42 thought	20	1975	thought	
091107	09:58	836	JSLH42	21	3413	2	
091107	09:58	836	JSseeLH44	22	500	0	
091107	09:58	836	LH44 vessel	23	2645	vessel	
091107	09:58	836	JSLH44	24	2336	3	
091107	09:58	836	JSseeLH41	25	500	0	
091107	09:58	836	LH41 girl	26	1606	girl	
091107	09:58	836	JSLH41	27	1461	3	
091107	09:58	836	JSseeHL08	28	500	0	
091107	09:58	836	HL08 math	29	1166	math	
091107	09:58	836	JSHL08	30	2171	5	
091107	09:58	836	JSseeHL30	31	500	0	
091107	09:58	836	HL30 air	32	1638	air	
091107	09:58	836	JSHL30	33	3456	4	
091107	09:58	836	JSseeLH34	34	500	0	
091107	09:58	836	LH34 panel	35	1725	panel	
091107	09:58	836	JSLH34	36	2478	9	
091107	09:58	836	JSseeHL37	37	500	0	
091107	09:58	836	HL37 thread	38	2768	thread	
091107	09:58	836	JSHL37	39	188	8	
091107	09:58	836	JSseeUR23	40	500	0	
091107	09:58	836	UR23 abundance	41	4294	blank	
091107	09:58	836	JSUR23	42	2812	2	
091107	09:58	836	JSseeUR94	43	500	0	
091107	09:58	836	UR94 bristle	44	3155	case	
091107	09:58	836	JSUR94	45	1688	5	
091107	09:58	836	JSseeLH29	46	500	0	
091107	09:58	836	LH29 closet	47	2407	coffee	
091107	09:58	836	JSLH29	48	2754	3	
091107	09:58	836	JSseeUR97	49	500	0	
091107	09:58	836	UR97 banner	50	1556	banner	
091107	09:58	836	JSUR97	51	3856	8	
091107	09:58	836	JSseeUR73	52	500	0	
091107	09:58	836	UR73 kite	53	5976	nose	
091107	09:58	836	JSUR73	54	3561	5	
091107	09:58	836	JSseeHL15	55	500	0	
091107	09:58	836	HL15 bomb	56	1761	bomb	
091107	09:58	836	JSHL15	57	2963	7	
091107	09:58	836	JSseeUR05	58	500	0	
091107	09:58	836	UR05 lease	59	3232	jump	
091107	09:58	836	JSUR05	60	4111	7	
091107	09:58	836	JSseeLH40	61	500	0	
091107	09:58	836	LH40 field	62	3056	field	
091107	09:58	836	JSLH40	63	4310	4	
091107	09:58	836	JSseeUR09	64	500	0	
091107	09:58	836	UR09 education	65	3132	education	
091107	09:58	836	JSUR09	66	4412	5	
091107	09:58	836	JSseeHL18	67	500	0	
091107	09:58	836	HL18 paper	68	1452	paper	
091107	09:58	836	JSHL18	69	2637	7	
091107	09:58	836	JSseeUR61	70	500	0	
091107	09:58	836	UR61 suicide	71	7260	suck	
091107	09:58	836	JSUR61	72	3687	6	
091107	09:58	836	JSseeLH18	73	500	0	
091107	09:58	836	LH18 edge	74	2900	edge	
091107	09:58	836	JSLH18	75	2421	7	
091107	09:58	836	JSseeHL04	76	500	0	
091107	09:58	836	HL04 beer	77	2210	beer	
091107	09:58	836	JSHL04	78	1931	8	
091107	09:58	836	JSseeUR19	79	500	0	
091107	09:58	836	UR19 bison	80	5685	brain	
091107	09:58	836	JSUR19	81	1889	7	
091107	09:58	836	JSseeLH12	82	500	0	
091107	09:58	836	LH12 addition	83	4890	addition	
091107	09:58	836	JSLH12	84	9301	5	
091107	09:58	836	JSseeHL02	85	500	0	
091107	09:58	836	HL02 flower	86	1398	flower	
091107	09:58	836	JSHL02	87	3089	6	
091107	09:58	836	JSseeLH36	88	500	0	
091107	09:58	836	LH36 gang	89	1855	gang	
091107	09:58	836	JSLH36	90	2600	6	
091107	09:58	836	JSseeLH48	91	500	0	
091107	09:58	836	LH48 outcome	92	3038	outcome	
091107	09:58	836	JSLH48	93	3350	5	
091107	09:58	836	JSseeLH15	94	500	0	
091107	09:58	836	LH15 blessing	95	2209	blessing	
091107	09:58	836	JSLH15	96	3876	9	
091107	09:58	836	JSseeHL35	97	500	0	
091107	09:58	836	HL35 cake	98	1163	cake	
091107	09:58	836	JSHL35	99	1580	7	
091107	09:58	836	JSseeUR40	100	500	0	
091107	09:58	836	UR40 dancer	101	2958	flake	
091107	09:58	836	JSUR40	102	2665	8	
091107	09:58	836	JSseeUR88	103	500	0	
091107	09:58	836	UR88 circus	104	2443	circus	
091107	09:58	836	JSUR88	105	2716	7	
091107	09:58	836	JSseeUR81	106	500	0	
091107	09:58	836	UR81 acid	107	1834	goal	
091107	09:58	836	JSUR81	108	4007	7	
091107	09:58	836	JSseeUR92	109	500	0	
091107	09:58	836	UR92 dart	110	5520	dark	
091107	09:58	836	JSUR92	111	2425	8	
091107	09:58	836	JSseeHL44	112	500	0	
091107	09:58	836	HL44 baseball	113	3533	baseball	
091107	09:58	836	JSHL44	114	4067	8	
091107	09:58	836	JSseeHL46	115	500	0	
091107	09:58	836	HL46 butter	116	2005	butter	
091107	09:58	836	JSHL46	117	3189	5	
091107	09:58	836	JSseeUR15	118	500	0	
091107	09:58	836	UR15 compass	119	2288	compress	
091107	09:58	836	JSUR15	120	3353	9	
091107	09:58	836	JSseeLH35	121	500	0	
091107	09:58	836	LH35 shelter	122	2147	shelter	
091107	09:58	836	JSLH35	123	2533	9	
091107	09:58	836	JSseeUR91	124	500	0	
091107	09:58	836	UR91 anteater	125	6931	rat	
091107	09:58	836	JSUR91	126	5307	7	
091107	09:58	836	JSseeLH08	127	500	0	
091107	09:58	836	LH08 house	128	1501	house	
091107	09:58	836	JSLH08	129	4167	7	
091107	09:58	836	JSseeLH21	130	500	0	
091107	09:58	836	LH21 monument	131	2842	moment	
091107	09:58	836	JSLH21	132	2784	7	
091107	09:58	836	JSseeUR83	133	500	0	
091107	09:58	836	UR83 lesson	134	1977	lesson	
091107	09:58	836	JSUR83	135	4030	5	
091107	09:58	836	JSseeHL22	136	500	0	
091107	09:58	836	HL22 problem	137	2270	problem	
091107	09:58	836	JSHL22	138	2487	5	
091107	09:58	836	JSseeLH47	139	500	0	
091107	09:58	836	LH47 detergent	140	7075	detergent	
091107	09:58	836	JSLH47	141	3119	7	
091107	09:58	836	JSseeUR56	142	500	0	
091107	09:58	836	UR56 antler	143	3631	control	
091107	09:58	836	JSUR56	144	4199	7	
091107	09:58	836	JSseeUR80	145	500	0	
091107	09:58	836	UR80 antique	146	8654	medicine	
091107	09:58	836	JSUR80	147	3939	8	
091107	09:58	836	JSseeUR11	148	500	0	
091107	09:58	836	UR11 foundation	149	2494	foundation	
091107	09:58	836	JSUR11	150	5752	3	
091107	09:58	836	JSseeHL11	151	500	0	
091107	09:58	836	HL11 rock	152	2071	rock	
091107	09:58	836	JSHL11	153	6167	4	
091107	09:58	836	JSseeLH16	154	500	0	
091107	09:58	836	LH16 power	155	1800	power	
091107	09:58	836	JSLH16	156	2545	5	
091107	09:58	836	JSseeUR18	157	500	0	
091107	09:58	836	UR18 relief	158	3076	relief	
091107	09:58	836	JSUR18	159	4402	7	
091107	09:58	836	JSseeLH39	160	500	0	
091107	09:58	836	LH39 reward	161	4200	reward	
091107	09:58	836	JSLH39	162	3198	4	
091107	09:58	836	JSseeUR79	163	500	0	
091107	09:58	836	UR79 beetle	164	6569	garden	
091107	09:58	836	JSUR79	165	2353	5	
091107	09:58	836	JSseeUR102	166	500	0	
091107	09:58	836	UR102 velocity	167	2521	win	
091107	09:58	836	JSUR102	168	3193	5	
091107	09:58	836	JSseeUR101	169	500	0	
091107	09:58	836	UR101 beard	170	7643	beans	
091107	09:58	836	JSUR101	171	3400	2	
091107	09:58	836	JSseeUR72	172	500	0	
091107	09:58	836	UR72 band	173	2221	band	
091107	09:58	836	JSUR72	174	4014	7	
091107	09:58	836	JSseeUR51	175	500	0	
091107	09:58	836	UR51 cabbage	176	2024	fair	
091107	09:58	836	JSUR51	177	2472	4	
091107	09:58	836	JSseeHL54	178	500	0	
091107	09:58	836	HL54 indian	179	2306	indian	
091107	09:58	836	JSHL54	180	2611	6	
091107	09:58	836	JSseeUR39	181	500	0	
091107	09:58	836	UR39 faith	182	1863	famous	
091107	09:58	836	JSUR39	183	3635	7	
091107	09:58	836	JSseeUR49	184	500	0	
091107	09:58	836	UR49 casket	185	5570	cash	
091107	09:58	836	JSUR49	186	2440	5	
091107	09:58	836	JSseeLH49	187	500	0	
091107	09:58	836	LH49 kindness	188	3880	kindness	
091107	09:58	836	JSLH49	189	1208	3	
091107	09:58	836	JSseeUR10	190	500	0	
091107	09:58	836	UR10 tribe	191	2093	dance	
091107	09:58	836	JSUR10	192	1807	2	
091107	09:58	836	JSseeHL06	193	500	0	
091107	09:58	836	HL06 egg	194	2170	egg	
091107	09:58	836	JSHL06	195	1486	1	
091107	09:58	836	JSseeUR71	196	500	0	
091107	09:58	836	UR71 padding	197	1803	water	
091107	09:58	836	JSUR71	198	3069	8	
091107	09:58	836	JSseeUR25	199	500	0	
091107	09:58	836	UR25 partner	200	10684	painter	
091107	09:58	836	JSUR25	201	3352	3	
091107	09:58	836	JSseeUR03	202	500	0	
091107	09:58	836	UR03 vehicle	203	4161	hold	
091107	09:58	836	JSUR03	204	1729	3	
091107	09:58	836	JSseeHL28	205	500	0	
091107	09:58	836	HL28 bird	206	2154	bird	
091107	09:58	836	JSHL28	207	756	1	
091107	09:58	836	JSseeUR100	208	500	0	
091107	09:58	836	UR100 comb	209	2124	comb	
091107	09:58	836	JSUR100	210	4139	8	
091107	09:58	836	JSseeUR89	211	500	0	
091107	09:58	836	UR89 crow	212	1625	cow	
091107	09:58	836	JSUR89	213	2721	1	
091107	09:58	836	JSseeUR29	214	500	0	
091107	09:58	836	UR29 patrol	215	1678	pool	
091107	09:58	836	JSUR29	216	4935	4	
091107	09:58	836	JSseeHL38	217	500	0	
091107	09:58	836	HL38 boat	218	1401	boat	
091107	09:58	836	JSHL38	219	2482	3	
091107	09:58	836	JSseeLH33	220	500	0	
091107	09:58	836	LH33 fable	221	2255	fable	
091107	09:58	836	JSLH33	222	2846	6	
091107	09:58	836	JSseeUR31	223	500	0	
091107	09:58	836	UR31 diameter	224	2591	digital	
091107	09:58	836	JSUR31	225	5096	1	
091107	09:58	836	JSseeHL19	226	500	0	
091107	09:58	836	HL19 car	227	1798	cars	
091107	09:58	836	JSHL19	228	2828	3	
091107	09:58	836	JSseeLH31	229	500	0	
091107	09:58	836	LH31 self	230	1589	self	
091107	09:58	836	JSLH31	231	818	2	
091107	09:58	836	JSseeLH13	232	500	0	
091107	09:58	836	LH13 crease	233	2465	crease	
091107	09:58	836	JSLH13	234	2674	8	
091107	09:58	836	JSseeUR37	235	500	0	
091107	09:58	836	UR37 cloth	236	2920	fluff	
091107	09:58	836	JSUR37	237	3108	3	
091107	09:58	836	JSseeHL27	238	500	0	
091107	09:58	836	HL27 rain	239	1946	rain	
091107	09:58	836	JSHL27	240	4616	5	
091107	09:58	836	JSseeUR104	241	500	0	
091107	09:58	836	UR104 aardvark	242	4003	advice	
091107	09:58	836	JSUR104	243	2188	3	
091107	09:58	836	JSseeUR38	244	500	0	
091107	09:58	836	UR38 energy	245	3440	enrage	
091107	09:58	836	JSUR38	246	3280	4	
091107	09:58	836	JSseeUR90	247	500	0	
091107	09:58	836	UR90 sailing	248	2295	money	
091107	09:58	836	JSUR90	249	1682	3	
091107	09:58	836	JSseeUR57	250	500	0	
091107	09:58	836	UR57 benefit	251	3614	benefit	
091107	09:58	836	JSUR57	252	3906	7	
091107	09:58	836	JSseeUR86	253	500	0	
091107	09:58	836	UR86 boulevard	254	3565	boulder	
091107	09:58	836	JSUR86	255	3816	2	
091107	09:58	836	JSseeLH45	256	500	0	
091107	09:58	836	LH45 intellect	257	6054	intellect	
091107	09:58	836	JSLH45	258	3326	7	
091107	09:58	836	JSseeLH26	259	500	0	
091107	09:58	836	LH26 center	260	1535	center	
091107	09:58	836	JSLH26	261	2362	6	
091107	09:58	836	JSseeUR12	262	500	0	
091107	09:58	836	UR12 unicorn	263	5514	unicorn	
091107	09:58	836	JSUR12	264	2881	6	
091107	09:58	836	JSseeUR108	265	500	0	
091107	09:58	836	UR108 shield	266	4355	shield	
091107	09:58	836	JSUR108	267	7486	5	
091107	09:58	836	JSseeUR99	268	500	0	
091107	09:58	836	UR99 branch	269	2199	branch	
091107	09:58	836	JSUR99	270	3261	4	
091107	09:58	836	JSseeHL29	271	500	0	
091107	09:58	836	HL29 ring	272	1773	ring	
091107	09:58	836	JSHL29	273	1284	5	
091107	09:58	836	JSseeHL26	274	500	0	
091107	09:58	836	HL26 light	275	3803	light	
091107	09:58	836	JSHL26	276	2404	2	
091107	09:58	836	JSseeLH28	277	500	0	
091107	09:58	836	LH28 vagrant	278	2847	vacant	
091107	09:58	836	JSLH28	279	2276	3	
091107	09:58	836	JSseeHL52	280	500	0	
091107	09:58	836	HL52 sand	281	988	sand	
091107	09:58	836	JSHL52	282	4274	4	
091107	09:58	836	JSseeHL48	283	500	0	
091107	09:58	836	HL48 airplane	284	1751	plane	
091107	09:58	836	JSHL48	285	4471	9	
091107	09:58	836	JSseeUR43	286	500	0	
091107	09:58	836	UR43 balloon	287	4817	balloon	
091107	09:58	836	JSUR43	288	4566	3	
091107	09:58	836	JSseeUR93	289	500	0	
091107	09:58	836	UR93 catcher	290	4701	catcher	
091107	09:58	836	JSUR93	291	2739	7	
091107	09:58	836	JSseeHL20	292	500	0	
091107	09:58	836	HL20 wine	293	1901	wine	
091107	09:58	836	JSHL20	294	2509	3	
091107	09:58	836	JSseeHL13	295	500	0	
091107	09:58	836	HL13 map	296	1314	map	
091107	09:58	836	JSHL13	297	2218	7	
091107	09:58	836	JSseeHL12	298	500	0	
091107	09:58	836	HL12 space	299	1531	space	
091107	09:58	836	JSHL12	300	2322	8	
091107	09:58	836	JSseeUR02	301	500	0	
091107	09:58	836	UR02 comma	302	3837	come	
091107	09:58	836	JSUR02	303	2121	8	
091107	09:58	836	JSseeUR48	304	500	0	
091107	09:58	836	UR48 democracy	305	3478	democrat	
091107	09:58	836	JSUR48	306	7654	4	
091107	09:58	836	JSseeUR08	307	500	0	
091107	09:58	836	UR08 assistant	308	1644	chair	
091107	09:58	836	JSUR08	309	3409	5	
091107	09:58	836	JSseeUR84	310	500	0	
091107	09:58	836	UR84 flag	311	3644	fire	
091107	09:58	836	JSUR84	312	8488	3	
091107	09:58	836	JSseeUR26	313	500	0	
091107	09:58	836	UR26 eternity	314	2559	values	
091107	09:58	836	JSUR26	315	3288	8	
091107	09:58	836	JSseeLH52	316	500	0	
091107	09:58	836	LH52 bureau	317	9909	burden	
091107	09:58	836	JSLH52	318	3209	9	
091107	09:58	836	JSseeUR44	319	500	0	
091107	09:58	836	UR44 rot	320	2123	riot	
091107	09:58	836	JSUR44	321	7665	6	
091107	09:58	836	JSseeUR16	322	500	0	
091107	09:58	836	UR16 century	323	3034	change	
091107	09:58	836	JSUR16	324	7592	9	
date	time	subject	trialcode	trialnum	latency	response	
091107	09:51	833	JSseePR17	1	500	0	
091107	09:51	833	PR17 emerald	2	89803	elm	
091107	09:51	833	JSPR17	3	10583	8	
091107	09:51	833	JSseePR27	4	500	0	
091107	09:51	833	PR27 wheat	5	15661	person	
091107	09:51	833	JSPR27	6	10697	9	
091107	09:51	833	JSseePR07	7	500	0	
091107	09:51	833	PR07 bog	8	8244	music	
091107	09:51	833	JSPR07	9	5355	6	
091107	09:51	833	JSseePR23	10	500	0	
091107	09:51	833	PR23 companion	11	6631	state	
091107	09:51	833	JSPR23	12	11279	10	
091107	09:51	833	JSseePR06	13	500	0	
091107	09:51	833	PR06 beast	14	5106	beast	
091107	09:51	833	JSPR06	15	5821	5	
091107	09:51	833	JSseePR09	16	500	0	
091107	09:51	833	PR09 album	17	5832	signal	
091107	09:51	833	JSPR09	18	6216	8	
091107	09:51	833	JSseePR21	19	500	0	
091107	09:51	833	PR21 innocence	20	3846	control	
091107	09:51	833	JSPR21	21	9328	4	
091107	09:51	833	JSseePR01	22	500	0	
091107	09:51	833	PR01 cash	23	3356	cash	
091107	09:51	833	JSPR01	24	3694	7	
091107	09:51	833	JSseePR11	25	500	0	
091107	09:51	833	PR11 ounce	26	6292	once	
091107	09:51	833	JSPR11	27	2785	8	
091107	09:51	833	JSseePR25	28	500	0	
091107	09:51	833	PR25 saliva	29	5363	saliva	
091107	09:51	833	JSPR25	30	3686	10	
091107	09:51	833	JSseePR30	31	500	0	
091107	09:51	833	PR30 maiden	32	2842	maid	
091107	09:51	833	JSPR30	33	6343	6	
091107	09:51	833	JSseePR03	34	500	0	
091107	09:51	833	PR03 acre	35	2574	corn	
091107	09:51	833	JSPR03	36	5443	8	
091107	09:51	833	JSseePR13	37	500	0	
091107	09:51	833	PR13 ambition	38	3103	aunt	
091107	09:51	833	JSPR13	39	4545	4	
091107	09:51	833	JSseePR04	40	500	0	
091107	09:51	833	PR04 diaper	41	16694	ring	
091107	09:51	833	JSPR04	42	3828	9	
091107	09:51	833	JSseePR28	43	500	0	
091107	09:51	833	PR28 challenge	44	6016	cellar	
091107	09:51	833	JSPR28	45	4207	9	
091107	09:51	833	JSseeUR42	1	500	0	
091107	09:51	833	UR42 sergeant	2	5407	sent	
091107	09:51	833	JSUR42	3	7776	9	
091107	09:51	833	JSseeUR52	4	500	0	
091107	09:51	833	UR52 knight	5	6999	tight	
091107	09:51	833	JSUR52	6	3716	5	
091107	09:51	833	JSseeLH01	7	500	0	
091107	09:51	833	LH01 brain	8	2578	brain	
091107	09:51	833	JSLH01	9	4735	10	
091107	09:51	833	JSseeHL45	10	500	0	
091107	09:51	833	HL45 words	11	3490	word	
091107	09:51	833	JSHL45	12	3067	9	
091107	09:51	833	JSseeLH03	13	500	0	
091107	09:51	833	LH03 yard	14	2003	yard	
091107	09:51	833	JSLH03	15	8266	10	
091107	09:51	833	JSseeHL21	16	500	0	
091107	09:51	833	HL21 empire	17	11205	god	
091107	09:51	833	JSHL21	18	4442	3	
091107	09:51	833	JSseeLH38	19	500	0	
091107	09:51	833	LH38 paint	20	14849	print	
091107	09:51	833	JSLH38	21	3807	10	
091107	09:51	833	JSseeLH43	22	500	0	
091107	09:51	833	LH43 noise	23	2122	noise	
091107	09:51	833	JSLH43	24	2650	9	
091107	09:51	833	JSseeLH37	25	500	0	
091107	09:51	833	LH37 pad	26	1992	pad	
091107	09:51	833	JSLH37	27	5597	3	
091107	09:51	833	JSseeHL07	28	500	0	
091107	09:51	833	HL07 king	29	2172	king	
091107	09:51	833	JSHL07	30	1817	2	
091107	09:51	833	JSseeHL39	31	500	0	
091107	09:51	833	HL39 book	32	1742	book	
091107	09:51	833	JSHL39	33	7682	1	
091107	09:51	833	JSseeLH24	34	500	0	
091107	09:51	833	LH24 feeling	35	4207	faith	
091107	09:51	833	JSLH24	36	3129	9	
091107	09:51	833	JSseeHL42	37	500	0	
091107	09:51	833	HL42 pie	38	5610	pie	
091107	09:51	833	JSHL42	39	3512	10	
091107	09:51	833	JSseeUR30	40	500	0	
091107	09:51	833	UR30 lover	41	2413	love	
091107	09:51	833	JSUR30	42	1863	9	
091107	09:51	833	JSseeUR95	43	500	0	
091107	09:51	833	UR95 fool	44	2059	fool	
091107	09:51	833	JSUR95	45	3093	7	
091107	09:51	833	JSseeLH20	46	500	0	
091107	09:51	833	LH20 violation	47	9253	vilolence	
091107	09:51	833	JSLH20	48	2730	10	
091107	09:51	833	JSseeUR96	49	500	0	
091107	09:51	833	UR96 dessert	50	5807	dream	
091107	09:51	833	JSUR96	51	2846	4	
091107	09:51	833	JSseeUR66	52	500	0	
091107	09:51	833	UR66 chief	53	6709	cheese	
091107	09:51	833	JSUR66	54	3787	5	
091107	09:51	833	JSseeHL17	55	500	0	
091107	09:51	833	HL17 soap	56	2566	soap	
091107	09:51	833	JSHL17	57	2232	9	
091107	09:51	833	JSseeUR06	58	500	0	
091107	09:51	833	UR06 cello	59	2777	cold	
091107	09:51	833	JSUR06	60	4351	10	
091107	09:51	833	JSseeLH32	61	500	0	
091107	09:51	833	LH32 capacity	62	9740	test	
091107	09:51	833	JSLH32	63	2744	7	
091107	09:51	833	JSseeUR103	64	500	0	
091107	09:51	833	UR103 hula	65	5906	laugh	
091107	09:51	833	JSUR103	66	11101	10	
091107	09:51	833	JSseeHL23	67	500	0	
091107	09:51	833	HL23 baby	68	2011	baby	
091107	09:51	833	JSHL23	69	3319	8	
091107	09:51	833	JSseeUR63	70	500	0	
091107	09:51	833	UR63 alley	71	17769	allow	
091107	09:51	833	JSUR63	72	2959	9	
091107	09:51	833	JSseeLH11	73	500	0	
091107	09:51	833	LH11 cancer	74	2255	can	
091107	09:51	833	JSLH11	75	3859	10	
091107	09:51	833	JSseeHL03	76	500	0	
091107	09:51	833	HL03 cigarette	77	2889	cigar	
091107	09:51	833	JSHL03	78	2372	10	
091107	09:51	833	JSseeUR28	79	500	0	
091107	09:51	833	UR28 bang	80	2350	bang	
091107	09:51	833	JSUR28	81	7696	8	
091107	09:51	833	JSseeLH04	82	500	0	
091107	09:51	833	LH04 grade	83	1677	grade	
091107	09:51	833	JSLH04	84	3330	6	
091107	09:51	833	JSseeHL01	85	500	0	
091107	09:51	833	HL01 elephant	86	3050	elephant	
091107	09:51	833	JSHL01	87	2836	4	
091107	09:51	833	JSseeLH27	88	500	0	
091107	09:51	833	LH27 condition	89	5239	control	
091107	09:51	833	JSLH27	90	2825	2	
091107	09:51	833	JSseeLH51	91	500	0	
091107	09:51	833	LH51 exit	92	3428	light	
091107	09:51	833	JSLH51	93	2635	9	
091107	09:51	833	JSseeLH07	94	500	0	
091107	09:51	833	LH07 rear	95	1660	read	
091107	09:51	833	JSLH07	96	3686	3	
091107	09:51	833	JSseeHL41	97	500	0	
091107	09:51	833	HL41 hand	98	1465	hand	
091107	09:51	833	JSHL41	99	12379	1	
091107	09:51	833	JSseeUR50	100	500	0	
091107	09:51	833	UR50 crane	101	3527	camp	
091107	09:51	833	JSUR50	102	2017	9	
091107	09:51	833	JSseeUR76	103	500	0	
091107	09:51	833	UR76 dignity	104	2392	disk	
091107	09:51	833	JSUR76	105	3816	10	
091107	09:51	833	JSseeUR69	106	500	0	
091107	09:51	833	UR69 flashlight	107	1863	flash	
091107	09:51	833	JSUR69	108	2925	10	
091107	09:51	833	JSseeUR85	109	500	0	
091107	09:51	833	UR85 stroke	110	3659	left	
091107	09:51	833	JSUR85	111	2993	8	
091107	09:51	833	JSseeHL47	112	500	0	
091107	09:51	833	HL47 horse	113	1612	horse	
091107	09:51	833	JSHL47	114	1203	10	
091107	09:51	833	JSseeHL49	115	500	0	
091107	09:51	833	HL49 spice	116	2324	spice	
091107	09:51	833	JSHL49	117	3247	2	
091107	09:51	833	JSseeUR22	118	500	0	
091107	09:51	833	UR22 thesaurus	119	3340	home	
091107	09:51	833	JSUR22	120	2834	10	
091107	09:51	833	JSseeLH25	121	500	0	
091107	09:51	833	LH25 track	122	4086	track	
091107	09:51	833	JSLH25	123	2860	10	
091107	09:51	833	JSseeUR82	124	500	0	
091107	09:51	833	UR82 campus	125	3047	campus	
091107	09:51	833	JSUR82	126	2857	8	
091107	09:51	833	JSseeLH02	127	500	0	
091107	09:51	833	LH02 harm	128	1408	harm	
091107	09:51	833	JSLH02	129	2592	10	
091107	09:51	833	JSseeLH14	130	500	0	
091107	09:51	833	LH14 note	131	2010	note	
091107	09:51	833	JSLH14	132	2756	9	
091107	09:51	833	JSseeUR70	133	500	0	
091107	09:51	833	UR70 pajamas	134	6607	pans	
091107	09:51	833	JSUR70	135	1969	5	
091107	09:51	833	JSseeHL31	136	500	0	
091107	09:51	833	HL31 war	137	1291	war	
091107	09:51	833	JSHL31	138	2604	10	
091107	09:51	833	JSseeLH50	139	500	0	
091107	09:51	833	LH50 measure	140	1911	measure	
091107	09:51	833	JSLH50	141	2429	5	
091107	09:51	833	JSseeUR60	142	500	0	
091107	09:51	833	UR60 plaque	143	4839	plague	
091107	09:51	833	JSUR60	144	10744	6	
091107	09:51	833	JSseeUR68	145	500	0	
091107	09:51	833	UR68 fatigue	146	3847	fix	
091107	09:51	833	JSUR68	147	3794	7	
091107	09:51	833	JSseeUR20	148	500	0	
091107	09:51	833	UR20 climax	149	2100	limit	
091107	09:51	833	JSUR20	150	2651	5	
091107	09:51	833	JSseeHL09	151	500	0	
091107	09:51	833	HL09 chalk	152	2279	chalk	
091107	09:51	833	JSHL09	153	2764	9	
091107	09:51	833	JSseeLH09	154	500	0	
091107	09:51	833	LH09 piece	155	1753	piece	
091107	09:51	833	JSLH09	156	3764	6	
091107	09:51	833	JSseeUR27	157	500	0	
091107	09:51	833	UR27 consequence	158	4680	clean	
091107	09:51	833	JSUR27	159	3612	8	
091107	09:51	833	JSseeLH30	160	500	0	
091107	09:51	833	LH30 assignment	161	3904	assignment	
091107	09:51	833	JSLH30	162	11102	4	
091107	09:51	833	JSseeUR67	163	500	0	
091107	09:51	833	UR67 producer	164	2607	produce	
091107	09:51	833	JSUR67	165	2480	2	
091107	09:51	833	JSseeUR13	166	500	0	
091107	09:51	833	UR13 almanac	167	3378	lame	
091107	09:51	833	JSUR13	168	13385	10	
091107	09:51	833	JSseeUR107	169	500	0	
091107	09:51	833	UR107 cocaine	170	6501	clean	
091107	09:51	833	JSUR107	171	2659	10	
091107	09:51	833	JSseeUR65	172	500	0	
091107	09:51	833	UR65 checkers	173	2256	choice	
091107	09:51	833	JSUR65	174	2150	10	
091107	09:51	833	JSseeUR59	175	500	0	
091107	09:51	833	UR59 copper	176	1371	paper	
091107	09:51	833	JSUR59	177	975	10	
091107	09:51	833	JSseeHL53	178	500	0	
091107	09:51	833	HL53 fish	179	1266	fish	
091107	09:51	833	JSHL53	180	1644	10	
091107	09:51	833	JSseeUR47	181	500	0	
091107	09:51	833	UR47 chimpanzee	182	22801	soot	
091107	09:51	833	JSUR47	183	3272	9	
091107	09:51	833	JSseeUR58	184	500	0	
091107	09:51	833	UR58 answer	185	5810	swollen	
091107	09:51	833	JSUR58	186	2765	10	
091107	09:51	833	JSseeLH53	187	500	0	
091107	09:51	833	LH53 core	188	1682	core	
091107	09:51	833	JSLH53	189	1915	7	
091107	09:51	833	JSseeUR105	190	500	0	
091107	09:51	833	UR105 curtain	191	4801	curvy	
091107	09:51	833	JSUR105	192	1743	4	
091107	09:51	833	JSseeHL05	193	500	0	
091107	09:51	833	HL05 mountain	194	2854	mountain	
091107	09:51	833	JSHL05	195	4449	5	
091107	09:51	833	JSseeUR64	196	500	0	
091107	09:51	833	UR64 fist	197	3845	cent	
091107	09:51	833	JSUR64	198	2355	10	
091107	09:51	833	JSseeUR32	199	500	0	
091107	09:51	833	UR32 navigator	200	3166	discover	
091107	09:51	833	JSUR32	201	1833	9	
091107	09:51	833	JSseeUR04	202	500	0	
091107	09:51	833	UR04 marsh	203	4157	march	
091107	09:51	833	JSUR04	204	2453	10	
091107	09:51	833	JSseeHL34	205	500	0	
091107	09:51	833	HL34 hunger	206	1672	hunger	
091107	09:51	833	JSHL34	207	1704	10	
091107	09:51	833	JSseeUR106	208	500	0	
091107	09:51	833	UR106 eagle	209	2454	eagle	
091107	09:51	833	JSUR106	210	4353	8	
091107	09:51	833	JSseeUR77	211	500	0	
091107	09:51	833	UR77 uncle	212	2191	uncle	
091107	09:51	833	JSUR77	213	11294	8	
091107	09:51	833	JSseeUR35	214	500	0	
091107	09:51	833	UR35 cause	215	1405	cause	
091107	09:51	833	JSUR35	216	1927	10	
091107	09:51	833	JSseeHL43	217	500	0	
091107	09:51	833	HL43 money	218	1467	money	
091107	09:51	833	JSHL43	219	4283	9	
091107	09:51	833	JSseeLH23	220	500	0	
091107	09:51	833	LH23 possibility	221	3233	possibility	
091107	09:51	833	JSLH23	222	2188	7	
091107	09:51	833	JSseeUR36	223	500	0	
091107	09:51	833	UR36 denim	224	2185	deny	
091107	09:51	833	JSUR36	225	2169	6	
091107	09:51	833	JSseeHL24	226	500	0	
091107	09:51	833	HL24 eye	227	1307	eye	
091107	09:51	833	JSHL24	228	2362	5	
091107	09:51	833	JSseeLH22	229	500	0	
091107	09:51	833	LH22 crowd	230	2777	crowd	
091107	09:51	833	JSLH22	231	923	5	
091107	09:51	833	JSseeLH05	232	500	0	
091107	09:51	833	LH05 chain	233	1306	chain	
091107	09:51	833	JSLH05	234	610	8	
091107	09:51	833	JSseeUR45	235	500	0	
091107	09:51	833	UR45 bridge	236	5145	mate	
091107	09:51	833	JSUR45	237	1522	10	
091107	09:51	833	JSseeHL33	238	500	0	
091107	09:51	833	HL33 joke	239	1276	joke	
091107	09:51	833	JSHL33	240	1988	9	
091107	09:51	833	JSseeUR14	241	500	0	
091107	09:51	833	UR14 fudge	242	2437	forge	
091107	09:51	833	JSUR14	243	4541	3	
091107	09:51	833	JSseeUR46	244	500	0	
091107	09:51	833	UR46 content	245	2169	glass	
091107	09:51	833	JSUR46	246	3659	2	
091107	09:51	833	JSseeUR78	247	500	0	
091107	09:51	833	UR78 blender	248	1631	blend	
091107	09:51	833	JSUR78	249	1759	9	
091107	09:51	833	JSseeUR62	250	500	0	
091107	09:51	833	UR62 chemistry	251	5732	chemistry	
091107	09:51	833	JSUR62	252	3444	3	
091107	09:51	833	JSseeUR75	253	500	0	
091107	09:51	833	UR75 awe	254	1698	awe	
091107	09:51	833	JSUR75	255	853	9	
091107	09:51	833	JSseeLH46	256	500	0	
091107	09:51	833	LH46 submarine	257	4502	submarine	
091107	09:51	833	JSLH46	258	2934	1	
091107	09:51	833	JSseeLH17	259	500	0	
091107	09:51	833	LH17 life	260	1210	life	
091107	09:51	833	JSLH17	261	2099	9	
091107	09:51	833	JSseeUR21	262	500	0	
091107	09:51	833	UR21 ore	263	1865	decor	
091107	09:51	833	JSUR21	264	1883	10	
091107	09:51	833	JSseeUR17	265	500	0	
091107	09:51	833	UR17 trance	266	1975	trance	
091107	09:51	833	JSUR17	267	3403	10	
091107	09:51	833	JSseeUR98	268	500	0	
091107	09:51	833	UR98 latch	269	4361	flow	
091107	09:51	833	JSUR98	270	1853	8	
091107	09:51	833	JSseeHL36	271	500	0	
091107	09:51	833	HL36 football	272	2000	football	
091107	09:51	833	JSHL36	273	567	1	
091107	09:51	833	JSseeHL32	274	500	0	
091107	09:51	833	HL32 television	275	8036	television	
091107	09:51	833	JSHL32	276	1350	9	
091107	09:51	833	JSseeLH19	277	500	0	
091107	09:51	833	LH19 snob	278	1239	run	
091107	09:51	833	JSLH19	279	1228	9	
091107	09:51	833	JSseeHL51	280	500	0	
091107	09:51	833	HL51 color	281	1624	color	
091107	09:51	833	JSHL51	282	3654	8	
091107	09:51	833	JSseeHL50	283	500	0	
091107	09:51	833	HL50 doctor	284	1989	doctor	
091107	09:51	833	JSHL50	285	2865	10	
091107	09:51	833	JSseeUR53	286	500	0	
091107	09:51	833	UR53 hell	287	1598	hell	
091107	09:51	833	JSUR53	288	3649	7	
091107	09:51	833	JSseeUR87	289	500	0	
091107	09:51	833	UR87 duty	290	1871	duty	
091107	09:51	833	JSUR87	291	1030	2	
091107	09:51	833	JSseeHL25	292	500	0	
091107	09:51	833	HL25 cut	293	1526	cut	
091107	09:51	833	JSHL25	294	3816	4	
091107	09:51	833	JSseeHL14	295	500	0	
091107	09:51	833	HL14 milk	296	4299	milk	
091107	09:51	833	JSHL14	297	779	10	
091107	09:51	833	JSseeHL10	298	500	0	
091107	09:51	833	HL10 cow	299	1303	cow	
091107	09:51	833	JSHL10	300	2405	7	
091107	09:51	833	JSseeUR01	301	500	0	
091107	09:51	833	UR01 file	302	1349	file	
091107	09:51	833	JSUR01	303	1655	9	
091107	09:51	833	JSseeUR55	304	500	0	
091107	09:51	833	UR55 bargain	305	1726	bargain	
091107	09:51	833	JSUR55	306	2466	7	
091107	09:51	833	JSseeUR07	307	500	0	
091107	09:51	833	UR07 gathering	308	2206	heal	
091107	09:51	833	JSUR07	309	4394	8	
091107	09:51	833	JSseeUR74	310	500	0	
091107	09:51	833	UR74 suitcase	311	10704	cold	
091107	09:51	833	JSUR74	312	8488	10	
091107	09:51	833	JSseeUR34	313	500	0	
091107	09:51	833	UR34 charity	314	5877	fight	
091107	09:51	833	JSUR34	315	4609	9	
091107	09:51	833	JSseeLH54	316	500	0	
091107	09:51	833	LH54 limit	317	1477	limit	
091107	09:51	833	JSLH54	318	1649	9	
091107	09:51	833	JSseeUR54	319	500	0	
091107	09:51	833	UR54 steam	320	1434	steam	
091107	09:51	833	JSUR54	321	9912	7	
091107	09:51	833	JSseeUR24	322	500	0	
091107	09:51	833	UR24 kid	323	1194	kid	
091107	09:51	833	JSUR24	324	2616	6	
091107	09:51	833	JAseePR26	1	500	0	
091107	09:51	833	PR26 colonel	2	6933	smell	
091107	09:51	833	JAPR26	3	22281	5	
091107	09:51	833	JAseePR24	4	500	0	
091107	09:51	833	PR24 pest	5	12224	part	
091107	09:51	833	JAPR24	6	3824	2	
091107	09:51	833	JAseePR08	7	500	0	
091107	09:51	833	PR08 beef	8	1693	sting	
091107	09:51	833	JAPR08	9	1528	8	
091107	09:51	833	JAseePR05	10	500	0	
091107	09:51	833	PR05 calf	11	3981	call	
091107	09:51	833	JAPR05	12	4581	10	
091107	09:51	833	JAseePR14	13	500	0	
091107	09:51	833	PR14 religion	14	6661	relief	
091107	09:51	833	JAPR14	15	3481	4	
091107	09:51	833	JAseePR19	16	500	0	
091107	09:51	833	PR19 void	17	2520	void	
091107	09:51	833	JAPR19	18	11309	5	
091107	09:51	833	JAseePR12	19	500	0	
091107	09:51	833	PR12 royalty	20	2582	loyal	
091107	09:51	833	JAPR12	21	4400	9	
091107	09:51	833	JAseePR02	22	500	0	
091107	09:51	833	PR02 wrinkle	23	2367	week	
091107	09:51	833	JAPR02	24	6902	9	
091107	09:51	833	JAseePR10	25	500	0	
091107	09:51	833	PR10 camel	26	1763	lens	
091107	09:51	833	JAPR10	27	2241	8	
091107	09:51	833	JAseePR15	28	500	0	
091107	09:51	833	PR15 depletion	29	6019	scent	
091107	09:51	833	JAPR15	30	2735	2	
091107	09:51	833	JAseePR20	31	500	0	
091107	09:51	833	PR20 advertisement	32	22989	intense	
091107	09:51	833	JAPR20	33	5401	2	
091107	09:51	833	JAseePR29	34	500	0	
091107	09:51	833	PR29 mermaid	35	1696	mermaid	
091107	09:51	833	JAPR29	36	4325	9	
091107	09:51	833	JAseePR16	37	500	0	
091107	09:51	833	PR16 compulsion	38	2252	religion	
091107	09:51	833	JAPR16	39	11073	9	
091107	09:51	833	JAseePR22	40	500	0	
091107	09:51	833	PR22 ass	41	2026	ass	
091107	09:51	833	JAPR22	42	4635	8	
091107	09:51	833	JAseeUR43	1	500	0	
091107	09:51	833	UR43 balloon	2	1199	vote	
091107	09:51	833	JAUR43	3	3053	5	
091107	09:51	833	JAseeUR102	4	500	0	
091107	09:51	833	UR102 velocity	5	2306	win	
091107	09:51	833	JAUR102	6	660	2	
091107	09:51	833	JAseeHL08	7	500	0	
091107	09:51	833	HL08 math	8	1094	math	
091107	09:51	833	JAHL08	9	686	9	
091107	09:51	833	JAseeLH13	10	500	0	
091107	09:51	833	LH13 crease	11	1688	crease	
091107	09:51	833	JALH13	12	4855	3	
091107	09:51	833	JAseeLH08	13	500	0	
091107	09:51	833	LH08 house	14	1331	house	
091107	09:51	833	JALH08	15	682	8	
091107	09:51	833	JAseeUR71	16	500	0	
091107	09:51	833	UR71 padding	17	1936	paddle	
091107	09:51	833	JAUR71	18	1182	8	
091107	09:51	833	JAseeUR25	19	500	0	
091107	09:51	833	UR25 partner	20	4682	ranch	
091107	09:51	833	JAUR25	21	2504	1	
091107	09:51	833	JAseeLH47	22	500	0	
091107	09:51	833	LH47 detergent	23	5553	dirty	
091107	09:51	833	JALH47	24	2931	8	
091107	09:51	833	JAseeLH36	25	500	0	
091107	09:51	833	LH36 gang	26	2483	gang	
091107	09:51	833	JALH36	27	4471	4	
091107	09:51	833	JAseeHL15	28	500	0	
091107	09:51	833	HL15 bomb	29	1809	bomb	
091107	09:51	833	JAHL15	30	10319	3	
091107	09:51	833	JAseeUR84	31	500	0	
091107	09:51	833	UR84 flag	32	5155	fire	
091107	09:51	833	JAUR84	33	3729	5	
091107	09:51	833	JAseeHL29	34	500	0	
091107	09:51	833	HL29 ring	35	2011	ring	
091107	09:51	833	JAHL29	36	5120	4	
091107	09:51	833	JAseeLH29	37	500	0	
091107	09:51	833	LH29 closet	38	5038	closet	
091107	09:51	833	JALH29	39	3814	3	
091107	09:51	833	JAseeLH52	40	500	0	
091107	09:51	833	LH52 bureau	41	16614	bureau	
091107	09:51	833	JALH52	42	3543	6	
091107	09:51	833	JAseeLH48	43	500	0	
